Acc X,Acc Y,Acc Z,Gyro X,Gyro Y,Gyro Z,Compass X,Compass Y,Compass Z,Lidar,Temperature,Time
-3,32,-263,-70,67,27,176,219,-22,51,24.03,257
-8,31,-265,-72,68,18,175,219,-15,54,24.03,344
1,36,-260,-74,70,36,181,222,-19,54,23.99,430
-13,26,-261,-73,66,12,175,221,-17,53,24.03,517
-6,32,-266,-72,67,39,178,219,-17,54,23.97,603
-3,33,-263,-72,67,20,180,222,-15,52,23.93,689
-4,30,-263,-72,68,26,179,221,-18,54,23.87,776
-2,32,-263,-71,68,32,182,221,-20,51,24.03,862
-4,31,-263,-73,67,17,181,223,-16,54,23.97,949
-2,32,-262,-71,68,35,180,223,-14,55,23.87,1035
-3,31,-261,-73,68,21,180,223,-20,52,23.87,1122
-5,32,-263,-72,68,27,183,222,-19,53,23.87,1208
-1,32,-262,-71,67,30,181,222,-20,54,23.79,1295
-30,-11,-247,-72,68,20,188,219,-22,52,23.93,1381
-57,168,-273,-71,68,31,176,272,-22,53,24.03,1468
-6,35,-269,-73,68,21,182,312,31,55,23.85,1554
2,19,-260,-72,67,30,198,215,-24,52,23.87,1641
8,32,-263,-71,67,26,194,279,-19,54,23.81,1727
-6,42,-264,-71,68,23,179,298,-11,54,23.81,1814
-4,32,-262,-72,67,33,179,222,-20,54,23.91,1900
-2,31,-263,-73,68,20,183,222,-19,54,23.91,1986
-4,31,-261,-72,67,28,185,223,-18,54,23.85,2073
-2,31,-262,-72,67,29,182,223,-18,52,23.75,2159
-6,32,-263,-73,68,21,185,222,-18,51,23.87,2246
-3,31,-263,-71,67,32,181,223,-19,55,23.87,2332
-3,32,-262,-72,68,22,182,222,-20,53,23.81,2419
-5,31,-260,-71,67,27,181,223,-20,54,23.79,2505
-1,31,-264,-71,66,28,183,227,-17,51,23.79,2592
-4,31,-265,-72,68,22,182,223,-15,54,23.87,2678
-3,32,-261,-72,68,30,182,225,-18,49,23.79,2765
-4,32,-262,-72,68,23,180,224,-16,55,23.87,2851
-3,30,-262,-72,67,27,181,222,-17,53,23.81,2938
-2,31,-263,-72,68,27,171,262,-15,53,23.81,3024
4,-56,-253,-72,67,23,188,219,-26,52,23.87,3111
-12,59,-271,-72,67,30,172,215,-17,52,23.85,3197
-2,32,-262,-71,67,24,160,326,-19,52,23.75,3284
-32,-3,-253,-72,68,26,193,239,-17,55,23.75,3371
4,54,-264,-72,67,28,181,211,-18,54,23.79,3458
-3,71,-266,-72,67,23,185,222,-21,52,23.65,3544
-36,-41,-241,-71,67,26,196,222,-18,55,23.79,3631
12,8,-262,-72,67,31,196,215,-18,53,23.85,3717
-6,30,-261,-72,67,18,182,222,-18,55,23.85,3803
-4,31,-261,-72,67,34,184,223,-21,53,23.97,3890
-2,32,-260,-73,68,22,184,222,-18,54,23.79,3976
-4,32,-263,-72,67,25,183,223,-16,52,23.79,4063
-3,33,-263,-71,67,31,183,222,-20,55,23.87,4149
-5,33,-261,-72,67,20,181,223,-20,56,23.91,4236
-5,31,-264,-72,67,32,182,223,-19,53,23.91,4322
-2,32,-262,-72,67,23,183,225,-20,55,23.81,4409
-4,31,-261,-71,67,26,183,222,-15,53,23.91,4495
-4,32,-263,-72,67,30,179,224,-18,51,23.91,4582
-3,32,-263,-72,68,21,179,223,-18,52,23.75,4668
-6,32,-263,-71,67,31,185,221,-24,52,23.75,4755
-4,3,-259,-72,67,23,175,229,83,55,23.75,4841
-29,-70,-233,-71,67,28,181,212,-23,56,23.81,4928
-25,99,-271,-72,67,26,162,310,-27,53,23.69,5014
15,-121,-238,-72,68,25,192,219,-21,52,23.75,5101
-4,32,-261,-72,67,30,184,222,-17,51,23.91,5187
-5,31,-263,-73,67,22,181,223,-21,53,23.87,5274
-4,31,-262,-72,67,30,182,224,-19,52,23.71,5360
-3,32,-262,-72,68,25,182,223,-19,54,23.75,5447
-5,31,-262,-72,67,26,183,221,-21,56,23.75,5533
-4,33,-262,-72,67,29,186,223,-19,54,23.75,5619
-4,32,-260,-73,68,23,181,222,-19,54,23.79,5706
-4,32,-263,-72,68,29,183,223,-17,49,23.81,5792
-2,31,-265,-72,67,24,181,224,-17,53,23.85,5879
-4,31,-263,-71,67,26,183,224,-18,52,23.81,5965
-3,31,-261,-72,67,27,183,223,-18,51,23.71,6052
-3,30,-263,-72,67,24,183,223,-17,56,23.91,6138
-4,31,-262,-71,67,29,180,222,-21,53,23.81,6225
-3,32,-262,-71,67,25,180,223,-16,52,23.81,6311
-4,31,-262,-72,67,25,184,223,-18,51,23.85,6398
-3,32,-261,-72,68,27,181,225,-17,52,23.79,6484
-3,31,-263,-73,67,24,182,224,-17,53,23.87,6572
-3,32,-262,-72,68,28,182,224,-18,53,23.79,6658
-5,32,-263,-71,67,25,182,223,-16,53,23.81,6745
-3,31,-262,-72,68,26,181,226,-18,53,23.81,6831
-4,32,-262,-72,67,27,182,222,-20,53,23.79,6918
-4,31,-262,-72,67,25,181,224,-20,53,23.79,7004
-4,32,-262,-72,67,27,184,222,-16,54,23.87,7090
-4,32,-262,-72,67,26,183,223,-20,51,23.81,7177
-4,32,-262,-72,68,26,184,224,-17,51,23.81,7263
-4,32,-262,-72,67,27,184,223,-17,53,23.81,7350
-5,32,-262,-73,68,24,182,224,-18,52,23.97,7436
-5,33,-262,-72,68,27,183,222,-19,55,23.85,7523
-2,32,-262,-72,67,26,183,224,-20,55,23.85,7609
-4,31,-264,-72,68,25,186,223,-19,53,23.81,7696
-3,32,-263,-72,67,27,182,221,-19,56,23.81,7782
-4,31,-262,-72,67,26,183,222,-20,52,23.81,7869
-4,31,-264,-72,67,27,182,223,-20,52,23.85,7955
-4,31,-262,-71,68,27,182,222,-18,54,23.81,8042
-4,30,-263,-72,67,26,182,222,-17,49,23.85,8128
-3,31,-264,-72,67,27,182,222,-20,52,23.87,8215
-3,32,-264,-73,68,26,180,222,-19,52,23.85,8301
-4,33,-262,-72,67,26,181,222,-17,50,23.81,8388
-3,31,-262,-72,67,26,182,223,-17,50,23.81,8474
-4,32,-264,-72,67,25,184,223,-17,54,23.81,8560
-3,31,-262,-72,67,27,183,221,-17,52,23.85,8647
-3,32,-262,-72,67,25,181,222,-19,56,23.85,8733
-3,31,-262,-72,67,26,181,221,-17,53,23.85,8820
-2,31,-265,-72,67,26,181,222,-18,54,23.87,8906
-3,31,-262,-72,67,26,185,221,-17,54,23.87,8993
-3,31,-261,-71,67,27,185,222,-17,55,23.81,9079
-3,32,-260,-72,68,25,181,220,-19,55,23.87,9166
-3,33,-262,-72,67,26,182,222,-17,52,23.81,9252
-5,32,-262,-72,66,26,183,221,-19,54,23.81,9339
-3,31,-261,-71,68,26,187,221,-18,54,23.81,9425
-4,32,-264,-72,67,26,181,221,-19,53,23.85,9512
-3,32,-261,-72,67,25,182,223,-19,53,23.87,9598
-4,31,-262,-72,67,26,183,222,-17,56,23.79,9686
-4,32,-263,-72,67,26,182,223,-21,52,23.85,9772
-3,31,-262,-72,67,26,181,221,-18,54,23.81,9859
-3,31,-263,-72,67,27,182,222,-14,54,23.81,9945
-5,31,-262,-71,67,26,179,221,-16,55,23.81,10031
-4,31,-262,-72,67,27,181,225,-17,55,23.81,10118
-4,32,-262,-72,67,26,181,224,-17,53,23.79,10205
-3,32,-263,-72,67,26,179,223,-15,54,23.81,10291
-4,34,-254,-71,68,26,178,224,-18,52,23.87,10378
-3,31,-262,-72,67,26,182,221,-19,55,23.97,10464
-3,31,-260,-72,67,26,183,222,-18,55,23.81,10551
-4,32,-263,-71,67,27,181,225,-17,52,23.91,10637
-4,30,-264,-72,67,26,184,223,-17,53,23.85,10724
-3,32,-261,-72,67,26,182,223,-19,51,23.85,10810
-4,32,-262,-71,67,26,181,222,-19,52,23.79,10897
-4,31,-263,-72,67,26,183,223,-19,50,23.81,10983
-2,31,-261,-72,67,26,181,220,-17,54,23.81,11070
-4,32,-263,-72,66,26,182,222,-19,55,23.85,11156
-4,31,-263,-72,67,26,184,221,-19,51,23.81,11243
-3,32,-264,-71,68,26,183,222,-19,51,23.87,11329
-2,30,-262,-72,67,26,182,223,-21,53,23.81,11416
-4,32,-261,-73,67,26,181,220,-18,53,23.85,11502
-4,32,-261,-72,67,26,181,223,-20,51,23.85,11589
-3,31,-261,-72,67,26,182,220,-16,56,23.71,11675
-2,32,-263,-72,68,26,180,224,-20,53,23.91,11762
-4,31,-264,-71,67,26,179,223,-17,50,23.79,11848
-4,32,-261,-72,67,26,181,223,-15,53,23.81,11935
-6,32,-265,-72,68,26,182,223,-13,55,23.81,12021
-3,32,-262,-71,67,26,180,220,-17,56,23.69,12108
-3,32,-262,-72,67,26,183,224,-18,52,23.75,12194
-3,32,-263,-72,67,26,181,222,-18,54,23.75,12281
-3,32,-262,-72,67,26,184,221,-17,53,23.71,12367
-5,31,-261,-72,67,26,182,221,-18,51,23.79,12454
-4,31,-262,-72,68,27,181,222,-18,52,23.71,12540
-3,32,-262,-72,68,26,182,223,-20,55,23.71,12627
-3,31,-262,-72,67,26,180,223,-19,54,23.75,12715
-3,31,-263,-72,67,26,184,223,-18,52,23.69,12801
-3,32,-262,-72,67,26,182,221,-20,51,23.69,12888
-4,33,-263,-72,67,27,182,221,-18,51,23.85,12974
-3,30,-263,-72,68,26,186,224,-19,55,23.85,13061
-4,32,-262,-72,67,26,184,223,-18,53,23.81,13147
-4,31,-264,-72,67,26,182,222,-18,52,23.79,13234
-4,31,-264,-71,67,26,182,222,-19,53,23.85,13320
-4,32,-263,-72,67,26,182,222,-20,53,23.85,13407
-3,31,-262,-72,67,26,183,218,-20,54,23.79,13493
-4,30,-261,-71,67,26,181,224,-17,50,23.79,13580
-3,32,-262,-72,67,26,181,224,-18,53,23.75,13666
-4,32,-263,-71,67,26,184,222,-15,53,23.75,13753
-3,31,-262,-72,68,26,183,221,-15,51,23.81,13839
-3,32,-264,-72,68,26,181,222,-15,50,23.85,13926
-4,32,-263,-72,67,26,182,221,-18,53,23.81,14012
-4,32,-261,-72,67,26,180,223,-17,52,23.81,14099
-5,33,-262,-72,67,26,180,222,-15,53,23.79,14185
-4,32,-264,-72,67,26,180,222,-17,53,23.81,14272
-4,31,-260,-72,67,26,185,222,-21,54,23.91,14358
-3,32,-262,-72,68,26,184,221,-19,55,23.79,14445
-4,32,-262,-72,67,26,182,223,-18,51,23.79,14531
-5,31,-259,-72,67,26,182,222,-19,53,23.85,14618
-4,31,-265,-71,67,26,182,220,-20,54,23.81,14704
-4,31,-264,-72,67,26,183,222,-22,52,23.75,14791
-3,31,-262,-72,68,26,181,224,-16,52,23.65,14877
-3,30,-262,-72,68,26,185,223,-19,54,23.87,14964
-3,33,-263,-72,68,26,186,222,-16,54,23.85,15050
-3,32,-262,-72,68,26,182,224,-18,54,23.87,15137
-5,33,-261,-72,67,26,181,219,-18,50,23.75,15223
-5,32,-264,-72,68,26,182,221,-19,51,23.75,15310
-4,32,-266,-72,67,26,178,221,-18,53,23.71,15397
-2,31,-259,-72,68,26,180,221,-18,54,23.69,15483
-4,31,-266,-72,68,26,185,222,-15,52,23.87,15570
-4,31,-263,-72,68,26,181,226,-17,52,23.79,15656
-3,33,-263,-73,68,26,183,219,-18,53,23.69,15744
-4,32,-263,-71,67,26,182,220,-18,53,23.79,15830
-3,32,-262,-71,67,26,179,226,-19,52,23.75,15917
-4,31,-258,-72,68,26,182,222,-20,56,23.75,16003
-2,32,-261,-72,67,26,183,222,-18,58,23.63,16090
-2,30,-264,-72,67,26,180,223,-18,53,23.69,16176
-3,31,-262,-71,67,26,182,222,-19,52,23.65,16263
-3,33,-261,-71,66,26,180,223,-19,53,23.81,16349
-4,31,-258,-71,66,26,183,219,-19,61,23.81,16436
-3,34,-258,-71,66,26,183,220,-19,53,23.69,16522
-4,32,-267,-74,69,26,184,223,-20,54,23.75,16609
-4,31,-253,-72,67,26,183,222,-18,53,23.75,16695
-4,30,-259,-73,69,26,185,222,-16,52,23.69,16782
-5,31,-264,-72,67,26,186,220,-20,53,23.71,16868
-4,33,-263,-72,68,26,184,220,-18,52,23.75,16955
-5,30,-261,-72,67,26,184,222,-18,55,23.75,17041
-4,31,-262,-72,67,26,183,221,-18,53,23.69,17128
-5,32,-264,-72,67,26,181,222,-19,54,23.85,17214
-4,32,-261,-71,67,26,181,222,-17,54,23.75,17301
-4,31,-263,-72,68,26,181,223,-17,55,23.81,17387
-3,31,-249,-70,68,26,182,221,-17,52,23.81,17474
-6,33,-267,-72,68,26,186,218,-16,49,23.69,17560
-3,32,-261,-72,68,26,184,219,-19,54,23.87,17647
-2,33,-261,-73,67,28,183,223,-18,54,23.91,17734
-3,31,-264,-73,68,25,181,224,-19,54,23.79,17820
-6,33,-272,-72,67,26,184,224,-21,54,23.87,17907
-4,33,-259,-72,68,28,183,221,-22,57,23.81,17993
-2,31,-259,-71,67,25,183,225,-18,52,23.85,18080
-1,30,-260,-71,66,31,183,224,-21,50,23.79,18166
-5,33,-266,-72,66,23,183,228,-24,56,23.79,18253
-2,32,-262,-72,67,27,184,219,-19,52,23.81,18339
-2,31,-261,-73,68,26,182,223,-20,57,23.71,18426
-4,31,-262,-71,67,25,186,222,-20,52,23.71,18512
-5,31,-265,-71,68,28,183,221,-20,54,23.79,18599
-5,29,-261,-72,68,24,183,224,-19,53,23.75,18685
-4,31,-264,-72,68,28,186,222,-20,54,23.87,18772
-1,34,-263,-72,67,25,181,224,-17,52,23.81,18859
-4,31,-263,-72,68,26,179,223,-18,50,23.81,18946
-3,31,-264,-73,68,28,183,220,-19,55,23.79,19032
-5,33,-261,-72,67,25,183,221,-19,52,23.75,19119
-3,32,-265,-72,67,27,182,223,-19,51,23.85,19205
-3,31,-262,-72,67,25,183,223,-16,55,23.79,19292
-3,31,-262,-72,68,26,183,220,-19,54,23.69,19378
-2,32,-261,-72,68,27,180,226,-17,52,23.85,19465
-5,31,-263,-72,67,25,184,226,-18,56,23.85,19551
-3,31,-264,-72,68,28,181,225,-20,52,23.69,19638
-3,31,-261,-72,67,25,183,224,-19,53,23.69,19724
-4,32,-261,-71,67,26,182,223,-19,51,23.69,19811
-2,33,-262,-71,67,27,182,224,-18,53,23.85,19897
-2,30,-264,-72,67,25,184,227,-16,52,23.75,19984
-4,33,-263,-71,68,28,181,226,-21,54,23.71,20071
-7,147,-278,-72,68,26,204,224,-20,50,23.85,20157
-5,29,-263,-71,67,24,183,222,-20,54,23.85,20244
-3,34,-259,-72,67,29,184,222,-20,53,24.03,20330
-4,33,-264,-72,67,22,184,225,-18,53,24.03,20417
-4,31,-263,-71,67,29,184,230,-19,55,23.69,20503
-3,32,-263,-72,67,25,184,222,-21,52,23.71,20590
-5,31,-262,-72,68,25,183,224,-16,54,23.71,20676
-4,32,-262,-72,68,29,182,222,-19,53,23.79,20763
-4,33,-261,-72,67,23,183,222,-21,53,23.81,20849
-4,32,-262,-72,68,28,183,222,-18,54,23.81,20936
-4,32,-262,-72,68,25,185,224,-22,55,23.75,21022
-5,32,-261,-73,68,25,182,224,-17,52,23.71,21109
-3,33,-261,-71,67,29,182,227,-13,55,23.71,21195
-2,33,-258,-72,67,22,180,223,-19,54,23.79,21282
-3,31,-262,-72,68,28,183,224,-18,53,23.85,21368
-3,32,-264,-72,67,25,181,222,-18,55,23.93,21455
-2,31,-265,-72,67,25,179,222,-18,57,23.71,21541
-3,32,-261,-71,67,28,182,222,-18,52,23.87,21628
-4,31,-263,-72,67,24,181,222,-19,56,23.91,21714
-4,32,-262,-71,67,28,183,222,-20,52,23.87,21801
-3,33,-258,-72,68,25,186,222,-16,54,23.87,21888
-4,31,-264,-72,67,25,184,219,-19,54,23.75,21975
-2,33,-261,-72,68,29,183,223,-19,52,23.81,22061
-2,32,-262,-72,67,23,185,222,-20,53,23.85,22148
-4,35,-261,-72,67,28,183,223,-22,53,23.91,22234
-5,31,-267,-71,65,26,184,230,-17,50,23.85,22321
4,-126,-237,-74,69,23,185,222,-21,54,23.79,22408
-3,110,-273,-72,67,28,179,220,-19,52,23.85,22494
-4,33,-261,-72,67,24,182,223,-19,53,23.81,22581
-6,31,-261,-72,68,29,183,222,-21,54,23.81,22667
-3,32,-262,-71,67,26,182,224,-20,52,23.91,22754
-3,32,-264,-73,68,24,181,224,-20,52,23.91,22840
-4,32,-262,-71,67,30,180,224,-19,52,23.97,22927
-4,32,-264,-72,67,24,179,224,-20,53,23.91,23013
-4,31,-260,-73,67,27,183,225,-16,54,23.91,23100
-3,31,-264,-71,67,29,180,224,-18,51,23.91,23186
-4,32,-259,-73,68,21,185,225,-19,54,23.75,23273
-3,30,-265,-71,67,29,182,226,-17,50,23.87,23359
-3,31,-267,-72,63,27,183,230,-19,51,23.87,23446
-6,32,-259,-71,68,23,182,232,-20,53,23.93,23532
-4,34,-259,-74,70,29,184,221,-19,51,23.65,23619
-2,31,-261,-71,67,23,183,222,-17,54,23.91,23705
-4,33,-262,-72,68,28,186,225,-20,52,23.81,23792
-4,33,-262,-71,67,26,183,224,-18,52,23.87,23878
-3,31,-261,-72,68,24,185,224,-19,53,23.85,23965
-3,33,-262,-71,67,28,181,224,-18,52,23.85,24051
-5,32,-262,-72,68,24,182,223,-19,54,23.79,24138
-5,32,-262,-72,67,28,181,227,-21,51,23.79,24224
-1,33,-257,-71,67,24,182,225,-19,55,23.71,24311
-4,31,-263,-72,67,27,183,223,-17,53,23.87,24398
-3,32,-261,-72,67,27,184,221,-20,54,23.97,24484
-4,32,-261,-73,67,24,169,253,-16,50,23.81,24571
-4,10,-261,-71,67,28,188,223,-25,54,23.91,24657
2,-43,-260,-73,67,28,182,223,-18,53,23.91,24744
-3,32,-261,-72,67,24,184,221,-15,55,23.97,24830
-4,32,-263,-72,67,27,181,224,-18,53,23.81,24918
-3,31,-261,-73,68,23,181,222,-19,52,23.81,25004
-5,30,-266,-72,67,29,178,223,-23,55,23.85,25091
-3,33,-266,-74,67,24,179,223,-20,49,23.87,25177
-6,33,-260,-71,67,26,182,220,-18,51,23.91,25264
-2,31,-264,-72,68,27,185,222,-17,53,23.93,25350
-4,32,-264,-72,67,24,182,221,-20,53,23.81,25437
-2,30,-262,-72,67,28,182,223,-19,53,23.91,25523
-2,30,-263,-72,68,25,182,220,-18,53,23.91,25610
-5,31,-260,-71,67,27,181,223,-21,54,23.91,25696
-4,31,-259,-72,69,26,182,222,-21,54,23.91,25783
-4,30,-265,-72,67,25,185,225,-21,53,23.81,25869
-4,31,-263,-72,67,26,183,222,-21,54,23.93,25956
-3,31,-262,-72,68,26,184,225,-18,52,23.85,26042
-5,33,-262,-72,67,26,184,223,-19,54,23.85,26129
-2,30,-267,-72,67,26,183,223,-20,53,24.05,26215
-4,31,-263,-72,67,26,182,220,-17,54,23.85,26302
-3,33,-260,-72,67,26,181,222,-16,54,23.93,26388
-4,31,-260,-72,67,26,182,223,-17,54,23.93,26475
-5,31,-261,-72,68,26,183,222,-15,52,23.79,26561
-4,31,-262,-72,67,27,180,225,-18,53,23.97,26648
-3,32,-262,-72,67,26,181,225,-17,54,23.91,26734
1,30,-262,-72,67,26,182,223,-18,51,23.81,26821
-38,0,-252,-72,67,26,182,223,-18,50,23.85,26907
-14,56,-269,-73,68,24,195,223,-22,54,23.93,26994
-2,71,-267,-72,67,29,197,224,-22,54,23.99,27081
-5,29,-268,-72,67,25,183,227,-21,52,23.93,27167
-4,33,-264,-72,66,26,182,223,-23,56,23.93,27254
-2,32,-264,-71,67,28,184,225,-20,52,23.81,27340
-5,31,-262,-72,68,22,183,221,-18,53,23.81,27427
-3,31,-263,-72,67,30,183,221,-19,51,23.93,27513
-5,32,-263,-73,67,23,183,226,-20,53,23.93,27600
-5,30,-263,-72,67,27,183,223,-21,54,23.93,27686
-2,31,-264,-71,67,26,181,221,-19,54,23.85,27773
-5,32,-261,-72,67,24,182,223,-19,49,23.81,27859
-2,31,-261,-72,67,29,185,224,-21,50,23.91,27947
-4,32,-263,-72,68,24,184,221,-18,54,23.91,28033
-5,32,-262,-72,67,26,179,224,-17,52,23.85,28120
-2,32,-262,-73,66,28,182,227,-18,54,24.09,28206
-3,30,-263,-71,67,26,183,227,-19,53,23.85,28293
-5,29,-273,-73,69,26,184,226,-18,54,23.97,28379
-4,31,-260,-73,67,26,184,224,-18,52,23.87,28466
-4,31,-265,-71,67,26,182,222,-18,51,23.81,28552
-3,33,-261,-72,67,27,179,219,-17,52,23.91,28639
-3,32,-264,-72,68,25,179,222,-22,51,23.91,28725
-3,32,-264,-72,68,26,184,220,-16,53,23.91,28812
-3,32,-265,-71,67,27,181,223,-19,51,23.81,28898
-4,31,-261,-72,68,26,183,225,-19,51,23.91,28985
9,21,-265,-71,67,27,192,231,-19,50,23.79,29071
28,55,-278,-71,67,25,185,223,-22,53,23.85,29158
-2,62,-267,-71,67,27,183,222,-22,52,23.99,29245
-5,15,-265,-73,67,23,189,221,-20,54,23.87,29331
-6,32,-263,-72,67,27,182,222,-20,55,23.85,29418
-4,31,-263,-72,68,28,180,223,-20,52,23.81,29504
-4,31,-263,-72,67,23,183,220,-18,54,23.81,29591
-4,32,-262,-72,67,29,184,221,-16,51,23.85,29677
-3,32,-262,-72,67,24,182,226,-16,54,24.03,29764
-2,31,-261,-72,68,26,183,222,-18,53,23.85,29850
-3,32,-262,-72,67,28,183,219,-20,53,23.91,29937
-5,32,-261,-72,67,23,184,222,-16,56,23.97,30023
-3,30,-261,-71,67,29,188,223,-19,53,23.93,30110
-3,32,-262,-73,67,25,181,223,-20,52,24.09,30196
-3,30,-268,-72,67,25,181,224,-17,51,24.09,30283
-4,32,-261,-72,68,28,185,221,-18,52,23.87,30369
-4,32,-262,-72,67,23,184,223,-18,52,23.81,30456
-4,32,-261,-72,67,28,181,223,-16,51,23.85,30542
-3,32,-261,-72,67,26,181,222,-20,51,24.11,30629
-3,32,-262,-72,68,25,182,222,-20,51,23.91,30715
-4,32,-262,-72,67,27,183,223,-18,58,23.87,30802
-4,31,-262,-72,67,26,183,225,-20,54,23.91,30888
-4,31,-261,-72,68,27,181,225,-18,53,23.91,30976
-3,32,-263,-72,67,26,181,225,-19,54,23.91,31062
-5,32,-262,-72,68,26,182,225,-19,52,23.97,31149
-3,32,-263,-72,68,27,185,226,-17,52,23.87,31235
-38,-4,-254,-72,68,26,181,231,36,50,23.93,31322
-17,1,-258,-71,67,26,186,228,-21,55,23.87,31408
-10,79,-270,-72,67,26,185,226,-18,53,23.81,31495
-11,84,-272,-72,67,25,180,227,-21,51,23.99,31582
-11,10,-259,-72,67,30,184,226,-18,52,23.81,31668
-4,32,-262,-73,68,22,183,227,-20,54,23.91,31755
-4,31,-264,-72,67,29,181,226,-20,52,23.91,31841
-2,30,-262,-72,67,27,183,226,-16,53,23.87,31928
-3,30,-262,-72,68,21,183,226,-19,53,23.79,32014
-3,31,-263,-72,67,32,179,229,-21,56,23.87,32101
-3,31,-264,-73,67,21,184,226,-18,52,23.81,32187
-6,32,-263,-72,67,28,184,228,-20,54,23.85,32274
-2,32,-264,-72,68,27,183,224,-20,50,23.85,32360
-4,30,-261,-73,67,23,181,222,-16,52,24.11,32447
-5,32,-255,-72,67,31,185,220,-21,54,23.87,32533
-4,32,-257,-73,67,22,186,221,-20,52,23.87,32620
-4,32,-262,-72,67,28,183,224,-18,55,23.81,32706
-3,32,-263,-71,68,27,183,223,-20,52,23.85,32793
-5,31,-263,-72,68,24,186,224,-20,54,24.09,32879
-4,30,-262,-71,67,30,185,225,-19,52,23.91,32966
-4,33,-263,-72,67,22,184,223,-19,51,23.87,33052
-5,31,-268,-72,67,28,184,222,-18,54,23.87,33139
-4,32,-261,-72,67,25,183,219,-23,55,23.91,33225
-5,32,-262,-72,68,25,182,226,-18,52,23.87,33312
-4,31,-261,-72,67,29,183,222,-19,51,23.87,33398
-3,34,-259,-72,68,23,184,222,-18,54,23.85,33485
15,67,-272,-72,67,28,164,267,-24,50,23.91,33572
-5,28,-256,-71,66,24,185,221,-18,52,23.93,33658
9,-10,-256,-72,68,27,181,222,-18,51,23.87,33745
-14,85,-265,-71,67,26,181,215,-20,53,23.81,33831
-12,58,-266,-72,68,23,185,220,-10,52,23.81,33918
-4,31,-264,-72,67,30,182,223,-17,55,23.87,34004
-3,33,-262,-72,67,23,181,222,-19,53,23.87,34092
-4,30,-262,-72,67,26,183,221,-21,54,23.87,34178
-3,33,-263,-71,66,29,181,223,-18,52,23.91,34265
-4,31,-261,-72,68,23,182,223,-21,53,23.81,34351
-4,33,-260,-72,67,29,182,223,-19,53,23.85,34438
-6,32,-264,-72,66,26,183,228,-19,53,23.81,34524
-3,30,-260,-72,69,26,186,229,-18,52,23.87,34611
-4,32,-261,-72,68,28,183,224,-21,54,23.91,34697
-4,31,-263,-72,68,21,183,223,-19,51,23.91,34784
-3,32,-262,-71,68,32,184,222,-19,54,23.91,34870
-5,34,-260,-72,67,23,183,223,-19,53,23.93,34957
-4,34,-264,-72,66,29,184,227,-18,53,23.81,35043
-7,31,-265,-71,67,26,185,225,-21,55,23.93,35130
-7,30,-263,-72,68,23,185,223,-19,54,23.91,35216
-6,32,-259,-72,68,29,182,223,-19,51,23.93,35303
-1,32,-262,-73,67,25,182,219,-20,53,24.03,35389
-4,30,-263,-72,67,26,183,223,-17,55,23.85,35476
-3,32,-264,-71,67,27,183,223,-19,55,23.91,35563
-4,32,-262,-72,68,25,182,224,-17,53,23.91,35649
-3,32,-262,-71,68,27,184,224,-18,53,23.85,35736
20,65,-271,-72,68,26,187,223,-20,53,23.81,35822
-3,33,-263,-71,67,26,182,223,-18,56,23.97,35909
-2,26,-262,-72,67,27,181,221,-18,52,23.87,35995
5,-65,-251,-72,67,26,182,220,-19,51,23.97,36082
1,11,-259,-72,68,27,187,222,-20,54,23.81,36168
-1,65,-264,-72,68,25,186,219,-11,52,23.87,36255
-4,32,-263,-72,67,25,186,224,-18,56,23.97,36341
-4,32,-262,-72,67,28,185,222,-17,55,23.97,36428
-5,32,-263,-71,67,25,183,224,-19,54,23.91,36514
-3,36,-261,-72,68,26,182,219,-19,52,23.91,36601
-3,30,-264,-72,67,26,183,222,-19,54,23.79,36687
-3,33,-263,-72,68,27,182,223,-18,51,23.81,36774
-2,30,-264,-73,69,26,181,222,-21,50,23.97,36860
-1,34,-271,-70,66,26,185,222,-20,50,23.87,36947
-9,29,-256,-72,66,28,184,224,-19,54,23.79,37033
-6,30,-266,-73,68,24,183,222,-21,55,23.97,37121
-4,32,-264,-71,66,26,183,221,-16,53,23.97,37207
-2,32,-263,-73,68,28,183,221,-20,52,23.81,37294
-3,32,-260,-72,67,24,184,224,-20,55,23.87,37380
-6,30,-264,-72,68,27,185,220,-20,49,23.97,37467
-1,31,-262,-72,67,26,184,221,-18,53,23.91,37553
-2,32,-263,-71,68,25,182,219,-18,54,23.79,37640
-4,31,-263,-73,67,28,180,222,-18,48,23.97,37726
-4,31,-259,-72,67,23,181,225,-13,52,23.91,37813
-4,34,-261,-72,67,28,185,224,-19,52,23.97,37899
-4,32,-262,-71,67,26,183,223,-16,49,23.97,37986
7,18,-267,-71,67,26,187,229,-24,53,23.93,38073
-3,34,-261,-72,66,28,185,230,-16,53,23.93,38159
-4,32,-261,-72,68,22,181,229,-19,53,23.87,38246
6,3,-259,-71,67,32,183,221,-21,54,23.91,38332
-8,53,-267,-73,67,19,177,215,-19,53,23.85,38419
-15,27,-263,-71,67,29,184,223,-20,51,24.17,38505
-1,33,-264,-72,67,27,185,224,-19,54,23.91,38592
-4,31,-263,-74,67,23,185,222,-21,52,23.85,38678
-4,29,-266,-71,67,29,182,222,-19,53,23.85,38765
-2,33,-263,-72,67,24,184,224,-17,52,23.99,38851
-7,29,-258,-73,68,28,181,225,-16,50,23.81,38938
-4,31,-262,-72,67,26,183,223,-21,50,23.93,39024
-5,32,-261,-72,67,23,183,220,-17,54,23.91,39111
-3,30,-266,-72,68,29,184,221,-20,54,23.87,39197
-3,34,-261,-72,67,25,180,221,-18,55,23.87,39284
-4,30,-261,-72,68,26,182,223,-21,51,23.85,39370
-3,30,-262,-71,67,27,182,225,-17,53,23.85,39457
-5,32,-266,-73,68,24,184,221,-18,52,23.93,39543
-3,32,-262,-71,67,27,182,219,-19,52,23.71,39630
-2,32,-263,-72,67,26,183,222,-18,54,23.75,39716
-4,32,-263,-72,68,26,185,222,-20,54,23.65,39803
-3,31,-263,-72,67,27,182,220,-21,53,23.81,39889
-4,32,-265,-72,68,25,185,223,-19,53,23.91,39976
-3,33,-262,-72,67,26,187,224,-19,53,23.79,40062
-5,32,-264,-72,67,26,183,225,-20,55,23.69,40150
-8,31,-257,-72,66,26,164,312,-25,56,23.69,40236
31,57,-276,-72,67,26,161,316,-21,54,23.69,40323
-2,33,-260,-72,68,24,183,222,-21,54,23.65,40410
-3,34,-260,-71,67,28,184,220,-19,54,23.59,40496
-23,146,-277,-72,68,25,185,222,-20,52,23.75,40583
-5,31,-264,-72,67,28,187,222,-20,56,23.59,40669
-10,74,-267,-72,67,23,181,220,-20,53,23.71,40756
-10,8,-261,-71,68,27,183,221,-18,52,23.63,40842
-2,31,-262,-72,67,26,185,221,-21,54,23.63,40929
-5,31,-263,-72,68,25,183,220,-17,52,23.71,41015
-3,31,-261,-71,67,29,186,221,-17,54,23.59,41102
-4,32,-263,-73,68,22,183,223,-15,50,23.65,41188
-3,31,-264,-71,67,30,183,224,-20,52,23.59,41275
-2,31,-263,-72,68,25,181,221,-20,55,23.69,41361
-3,31,-260,-72,65,26,181,228,-17,53,23.81,41448
-3,32,-269,-71,68,27,185,229,-20,52,23.65,41534
-1,32,-261,-73,69,24,182,223,-21,53,23.65,41621
-4,32,-263,-72,68,25,187,221,-19,51,23.65,41707
-3,32,-262,-72,67,28,186,222,-19,54,23.65,41794
-4,33,-261,-72,67,24,185,224,-22,55,23.63,41881
-4,34,-256,-70,67,30,184,228,-20,55,23.57,41967
-6,30,-263,-74,68,23,182,221,-21,58,23.75,42054
-4,32,-265,-71,67,27,184,222,-19,53,23.63,42140
-3,31,-263,-72,67,25,184,222,-19,54,23.75,42227
-4,31,-264,-72,68,25,184,223,-19,55,23.59,42313
-4,31,-263,-71,67,27,183,224,-20,54,23.59,42400
-5,32,-262,-73,68,24,184,221,-19,53,23.85,42486
18,64,-273,-71,67,27,187,222,-30,54,23.79,42573
-3,33,-263,-72,68,25,182,221,-17,50,23.79,42659
-3,31,-263,-72,68,26,182,219,-18,50,23.81,42746
13,-87,-248,-72,68,28,179,223,-19,53,23.97,42832
-3,32,-263,-72,67,23,182,221,-18,53,23.93,42919
-12,36,-263,-72,67,29,192,222,-21,55,23.81,43005
-5,-15,-266,-71,66,27,191,220,-22,53,23.93,43092
-4,32,-264,-72,68,24,182,221,-19,54,23.93,43179
-4,31,-260,-71,67,29,182,224,-20,53,23.75,43266
-4,32,-261,-71,66,23,181,229,-20,54,23.87,43352
-3,31,-261,-72,67,28,182,224,-20,52,23.85,43439
-4,31,-263,-72,67,26,181,223,-21,52,23.85,43526
-5,32,-264,-73,68,23,183,224,-20,51,24.03,43612
-3,33,-262,-71,68,30,186,222,-19,53,23.91,43699
-4,32,-261,-73,67,22,183,223,-18,52,23.85,43785
-3,32,-262,-71,67,29,185,221,-20,52,23.81,43872
-2,32,-268,-73,67,25,185,220,-20,54,23.81,43958
-4,31,-263,-71,67,25,182,219,-19,50,23.93,44045
-3,33,-265,-72,68,28,184,223,-22,53,23.91,44131
-2,31,-263,-72,69,25,182,223,-21,51,23.99,44218
-3,32,-264,-71,67,28,183,221,-21,52,23.79,44304
-3,33,-259,-70,66,25,183,221,-19,52,24.09,44391
-4,32,-261,-72,68,24,184,220,-19,52,23.99,44477
-2,33,-262,-72,67,27,182,223,-19,54,24.03,44564
-4,32,-262,-71,66,25,183,222,-18,52,24.03,44650
-4,32,-268,-73,68,26,182,223,-18,55,23.91,44737
-24,37,-258,-71,66,26,182,220,-17,55,23.97,44823
-3,32,-260,-73,68,25,184,220,-19,53,23.99,44910
-3,30,-267,-71,67,27,184,220,-17,52,23.93,44996
-11,18,-260,-72,68,24,179,215,-21,55,23.99,45083
-11,44,-264,-71,68,27,183,220,-21,50,23.93,45170
-2,32,-265,-71,67,28,179,221,-19,52,23.97,45256
-16,31,-263,-73,68,23,172,212,-20,52,23.97,45343
-3,39,-262,-71,67,28,183,221,-19,53,23.97,45429
-1,30,-262,-73,67,24,184,222,-22,51,23.87,45516
-5,30,-263,-71,66,26,186,228,-21,52,23.97,45602
-5,32,-260,-72,67,31,182,224,-21,51,23.97,45689
-2,32,-262,-72,67,20,183,228,-21,56,23.97,45775
-7,31,-263,-72,69,30,182,228,-23,51,23.87,45862
-2,33,-265,-73,69,25,184,224,-21,55,23.85,45948
-6,32,-263,-72,67,23,180,223,-21,54,23.91,46035
-4,32,-262,-71,67,30,181,221,-18,50,23.91,46121
-3,33,-263,-72,68,22,185,223,-21,55,23.91,46209
-7,28,-259,-70,67,28,181,224,-17,52,23.99,46295
-1,32,-265,-72,68,26,184,220,-17,53,23.85,46382
-4,32,-260,-71,67,24,183,222,-19,56,23.91,46468
-4,32,-263,-72,67,29,181,221,-17,52,23.79,46555
-5,32,-261,-73,67,23,185,222,-19,56,23.91,46641
-3,30,-256,-72,68,30,185,226,-17,51,23.81,46728
-1,33,-259,-73,68,25,184,228,-19,55,23.97,46814
-4,31,-265,-72,68,26,183,226,-19,51,23.85,46901
-3,31,-261,-72,68,28,161,315,-22,54,23.85,46987
10,65,-265,-73,68,22,164,320,-18,53,23.91,47074
-4,32,-263,-71,68,28,181,220,-21,54,23.93,47161
-4,32,-262,-72,67,26,184,222,-18,49,23.97,47247
-10,58,-266,-72,67,25,181,222,-18,54,23.85,47334
-8,77,-269,-72,67,26,185,219,-19,49,23.91,47420
-5,32,-264,-72,68,24,180,213,-20,52,23.97,47507
1,28,-256,-72,67,30,183,223,-19,51,24.09,47593
3,12,-263,-72,67,25,186,227,-20,51,23.99,47680
-4,30,-266,-72,68,28,184,226,-21,53,23.99,47766
0,38,-262,-72,68,25,186,223,-22,50,23.93,47853
-3,32,-264,-72,67,24,183,222,-19,53,23.93,47939
-3,32,-258,-73,68,29,181,219,-17,55,23.99,48026
-2,32,-262,-71,67,25,185,222,-22,53,23.87,48112
-7,32,-262,-74,67,27,183,222,-14,55,23.93,48199
-4,34,-264,-70,66,27,182,224,-18,54,23.99,48285
-2,31,-263,-72,68,22,183,221,-17,53,23.99,48372
-4,32,-263,-72,67,29,183,221,-21,53,23.99,48458
-3,32,-263,-71,68,24,185,220,-16,51,23.99,48545
-4,31,-262,-72,68,25,184,221,-16,53,23.91,48631
-3,31,-261,-71,67,28,180,218,-19,52,23.91,48718
-5,33,-263,-73,68,23,185,223,-19,53,23.85,48804
-3,31,-262,-72,67,28,181,221,-19,54,23.99,48891
-4,32,-259,-71,66,26,177,221,-15,51,23.97,48977
-6,27,-264,-71,67,25,182,220,-19,52,23.93,49064
-2,31,-264,-72,68,28,184,222,-19,54,23.93,49150
-23,-2,-256,-72,67,23,176,230,46,55,23.91,49238
8,20,-267,-72,68,29,185,220,-22,54,23.91,49324
-3,33,-263,-71,67,24,181,222,-21,50,23.99,49411
-4,31,-261,-72,68,26,184,222,-21,54,23.91,49498
-4,34,-262,-72,68,28,184,222,-21,54,23.75,49584
-16,120,-278,-72,68,24,183,222,-19,55,23.99,49671
-3,33,-260,421,420,419,182,221,-20,54,23.99,49757
0,3,-259,-71,68,24,183,222,-19,52,23.93,49843
8,13,-261,-72,68,26,208,216,-17,56,23.87,49930
-4,37,-267,-71,67,29,183,220,-20,51,23.87,50016
-3,31,-262,-72,68,22,182,220,-21,53,23.93,50103
-3,31,-263,-71,68,28,182,222,-20,51,23.93,50189
-1,32,-262,-72,68,27,183,219,-17,57,23.91,50276
-3,31,-261,-72,68,23,183,222,-16,53,23.99,50362
-4,33,-263,-71,68,30,181,221,-20,53,23.93,50449
-4,33,-261,-72,67,23,181,220,-20,53,23.93,50535
-4,32,-262,-72,67,27,181,222,-16,55,23.93,50622
-2,32,-263,-72,68,27,183,222,-21,54,23.81,50708
-5,31,-262,-72,67,24,185,221,-18,55,23.81,50795
-4,32,-263,-71,67,30,184,222,-17,55,23.99,50881
-3,32,-264,-72,67,23,182,219,-21,53,23.97,50968
-5,32,-265,-71,67,27,185,220,-19,52,23.87,51054
-3,33,-261,-72,68,27,184,219,-17,51,23.97,51141
-4,31,-261,-72,67,24,186,221,-21,51,23.91,51227
-2,32,-262,-72,67,28,183,221,-17,53,24.09,51314
-4,34,-260,-72,67,23,183,221,-22,52,24.03,51400
-30,28,-254,-72,67,27,158,375,-20,52,23.97,51487
28,63,-274,-71,67,26,187,224,-20,53,23.97,51574
-5,32,-260,-71,67,24,183,222,-20,51,23.99,51660
-3,31,-266,-71,67,28,183,224,-18,55,24.03,51747
-3,32,-263,-72,67,24,183,224,-20,54,23.91,51833
-19,137,-280,-72,68,28,183,221,-19,53,23.91,51920
-2,32,-261,-72,68,23,184,222,-17,51,24.03,52006
-3,32,-260,-72,67,27,182,222,-18,55,24.03,52093
0,11,-263,-72,67,27,183,222,-15,54,23.93,52179
-3,59,-268,-72,68,24,183,224,-18,52,23.85,52267
-4,32,-263,-71,67,28,182,224,-18,53,23.85,52353
-3,33,-262,-72,68,26,183,221,-16,58,23.99,52440
-4,31,-261,-72,68,25,182,222,-20,52,23.87,52526
-4,31,-263,-72,68,28,181,223,-16,53,24.03,52613
-3,32,-263,-72,68,25,181,224,-19,52,23.93,52699
-5,31,-261,-72,67,27,180,224,-16,50,24.11,52786
-2,32,-263,-72,68,26,184,225,-18,53,24.03,52872
-3,32,-262,-71,68,24,184,223,-18,53,23.97,52959
-4,31,-262,-71,68,27,184,220,-22,55,23.97,53045
-3,31,-263,-72,68,26,180,222,-18,53,23.97,53132
-4,33,-263,-72,67,26,183,222,-17,52,23.97,53219
-4,34,-261,-72,68,26,185,222,-19,53,24.03,53305
-3,31,-262,-71,67,25,185,221,-20,51,23.87,53392
-3,32,-262,-72,67,27,184,222,-21,53,23.85,53478
-3,31,-263,-71,67,25,182,224,-19,52,24.05,53565
-4,32,-263,-73,68,26,181,222,-18,51,23.99,53651
-19,37,-257,-71,67,26,184,221,-24,54,24.03,53738
-10,29,-266,-72,68,25,161,310,-25,53,24.03,53824
-3,33,-264,-72,68,27,183,222,-20,55,24.03,53911
-4,33,-263,-72,67,26,186,222,-19,52,23.97,53997
-4,29,-263,-71,68,26,182,225,-21,51,23.99,54084
7,-73,-248,-72,67,26,184,221,-18,52,23.97,54170
-2,32,-262,-71,67,27,181,221,-18,54,23.99,54257
-4,31,-261,-72,68,23,183,221,-19,52,23.99,54343
2,27,-259,-71,68,28,181,221,-17,55,24.05,54430
-4,37,-263,-72,67,25,189,226,-25,53,24.05,54516
-2,30,-263,-72,67,26,184,221,-20,53,23.93,54603
-3,33,-264,-72,68,27,182,223,-19,52,23.93,54689
-5,31,-263,-72,68,23,184,221,-19,54,24.03,54776
-4,34,-263,-72,68,31,182,221,-17,56,24.03,54862
-3,31,-263,-72,67,22,182,220,-20,54,24.09,54949
-6,31,-262,-72,68,27,185,222,-21,53,23.91,55035
-3,32,-262,-71,67,27,182,217,-21,53,23.99,55122
-5,31,-263,-73,68,23,183,219,-21,55,23.93,55208
-2,31,-262,-71,67,31,186,222,-19,55,23.99,55296
-4,33,-262,-72,67,23,184,220,-21,55,23.99,55382
-4,32,-263,-70,67,27,185,222,-18,51,24.03,55469
-3,32,-261,-71,67,27,183,222,-18,48,23.85,55556
-4,32,-264,-72,67,23,183,222,-20,53,23.91,55642
-3,31,-265,-72,67,29,184,222,-23,56,24.05,55729
-3,32,-262,-73,68,23,182,220,-20,53,24.05,55815
-5,32,-262,-72,67,27,182,223,-18,53,23.93,55902
-36,0,-252,-71,67,27,194,246,-18,53,24.05,55988
-5,32,-264,-73,68,24,180,223,-21,53,23.93,56075
-3,31,-265,-71,67,29,183,224,-18,51,23.93,56161
-4,31,-263,-72,68,25,182,219,-17,55,23.87,56248
-4,33,-262,-72,67,27,181,222,-22,53,23.93,56334
-3,-8,-257,-72,67,27,183,222,-21,54,23.99,56421
-4,32,-263,-72,68,24,183,219,-19,51,24.11,56507
-5,33,-261,-72,67,29,184,221,-22,55,23.99,56594
-4,31,-263,-72,68,24,181,220,-16,52,24.05,56680
-8,24,-268,-72,68,26,183,221,-21,54,24.05,56767
-1,-12,-260,-71,67,28,212,219,-20,53,23.97,56853
-4,31,-262,-72,67,24,184,222,-19,54,23.97,56940
-3,33,-262,-72,68,29,184,222,-22,52,23.87,57026
-2,31,-262,-72,68,23,186,220,-20,54,23.81,57113
-5,31,-262,-72,67,26,184,225,-19,54,23.79,57199
-3,32,-263,-72,68,28,183,222,-20,51,23.87,57286
-3,32,-262,-72,67,22,184,222,-19,52,23.97,57372
-3,32,-261,-72,67,30,181,223,-20,53,23.93,57459
-2,32,-261,-72,68,24,179,221,-16,53,23.85,57545
-3,31,-266,-71,67,26,181,223,-19,51,23.97,57632
-3,32,-263,-72,67,27,181,221,-20,51,23.97,57718
-4,32,-264,-72,68,24,183,222,-19,52,23.81,57805
-2,31,-264,-71,67,28,184,220,-20,51,24.03,57891
-4,30,-263,-72,68,25,181,221,-20,55,23.97,57978
-4,32,-263,-71,67,26,184,222,-18,52,23.85,58064
-3,33,-263,-71,67,27,182,223,-21,52,23.79,58151
6,19,-266,-72,68,25,186,220,-26,53,23.97,58237
-4,32,-264,-72,67,27,183,221,-19,50,23.91,58324
-3,32,-261,-72,68,25,185,227,-18,58,23.87,58412
-10,28,-262,-72,68,27,184,224,-23,52,23.87,58498
-3,32,-267,-71,67,25,183,220,-19,54,23.91,58585
-1,7,-261,-72,67,24,180,221,-19,52,23.99,58671
4,-3,-255,-71,67,30,180,219,-24,53,23.99,58758
-2,31,-263,-73,68,23,184,221,-20,54,23.79,58844
-3,29,-264,-72,67,26,182,222,-22,52,23.93,58931
-6,63,-263,-72,68,28,183,217,-22,52,23.87,59017
-1,6,-259,-72,67,22,192,222,-20,54,23.97,59104
-5,38,-265,-71,67,29,183,225,-21,55,23.91,59190
-3,33,-263,-72,68,24,185,223,-23,53,23.91,59277
-5,30,-261,-72,67,25,181,220,-22,52,23.85,59363
-2,33,-262,-72,67,30,184,221,-19,52,23.81,59450
-5,32,-261,-72,68,21,181,221,-17,53,23.85,59536
-2,34,-263,-72,68,30,181,226,-19,53,23.99,59623
-2,32,-269,-73,68,26,182,226,-16,52,24.05,59709
-5,31,-263,-72,67,23,184,229,-23,55,23.91,59796
-4,33,-264,-73,68,28,182,224,-18,55,23.79,59882
-3,32,-264,-72,68,24,180,220,-19,53,23.79,59969
-5,33,-262,-72,66,27,184,223,-18,53,23.81,60055
-3,32,-262,-72,68,27,181,222,-18,52,23.85,60142
-4,32,-262,-72,67,24,182,222,-18,54,23.79,60228
-3,31,-260,-71,68,28,179,220,-19,52,23.91,60315
-4,31,-263,-72,68,25,180,221,-22,52,23.91,60401
-26,32,-257,-72,67,27,172,294,-19,49,23.93,60488
-7,29,-264,-72,67,28,184,229,-22,54,23.97,60574
-2,34,-272,-71,68,24,183,224,-20,55,23.99,60661
-5,33,-263,-72,68,27,183,222,-18,53,23.99,60747
-3,32,-264,-72,67,25,186,220,-20,54,23.87,60834
-4,32,-262,-71,68,25,185,220,-24,52,23.93,60920
3,-43,-250,-72,68,24,185,219,-18,52,23.93,61007
-5,31,-262,-72,67,27,184,224,-19,54,23.93,61094
-5,32,-265,-72,68,27,184,222,-21,50,23.93,61180
-4,33,-261,-71,67,24,185,222,-19,50,23.93,61267
-4,9,-260,-71,67,28,176,218,-19,53,23.93,61353
-2,-13,-260,-72,67,25,184,222,-19,52,23.91,61441
-4,32,-264,-72,67,25,183,222,-19,54,23.91,61527
-3,32,-263,-71,67,29,182,221,-18,54,23.91,61614
-3,32,-263,-72,68,22,185,221,-20,52,23.85,61700
-4,31,-264,-72,67,28,182,221,-18,53,23.93,61787
-3,33,-264,-72,67,26,181,220,-18,54,24.09,61873
-6,31,-263,-72,68,24,183,219,-17,53,23.99,61960
-4,32,-264,-71,66,29,182,223,-21,51,23.91,62046
-3,30,-264,-71,67,23,181,224,-19,55,23.99,62133
-4,31,-262,-71,67,27,184,221,-23,52,23.99,62219
-3,33,-263,-72,67,26,183,221,-19,54,23.99,62306
-4,31,-262,-72,68,24,187,222,-18,53,23.81,62392
-4,32,-263,-72,67,28,184,222,-20,56,23.85,62479
-3,33,-263,-72,67,24,182,221,-20,52,23.85,62565
-5,31,-264,-72,68,26,184,227,35,53,23.91,62652
-29,-3,-253,-73,68,27,184,223,-21,55,24.05,62738
-4,33,-261,-73,68,24,185,221,-19,53,23.99,62825
0,29,-271,-71,68,30,187,220,-20,52,23.93,62911
0,33,-255,-74,68,23,184,222,-18,51,23.93,62998
-3,30,-258,-70,67,29,182,224,-21,53,23.93,63084
-6,32,-266,-73,68,23,181,223,-19,55,23.79,63171
-14,119,-275,-71,67,29,180,222,-19,53,23.81,63257
-3,32,-263,-72,67,25,183,223,-19,53,23.87,63344
-5,31,-262,-72,68,24,183,221,-22,55,23.91,63431
-4,32,-264,-72,67,29,181,221,-19,55,23.81,63517
-11,63,-265,-72,68,25,182,215,-19,50,23.87,63604
-11,62,-267,-72,68,26,190,221,-18,52,23.85,63690
-5,28,-261,-71,67,27,183,222,-21,52,23.85,63777
-5,33,-262,-71,67,24,184,223,-17,54,23.91,63863
-6,32,-260,-71,67,27,181,221,-19,54,23.81,63950
-3,32,-263,-71,67,28,184,221,-21,56,23.91,64036
-3,33,-262,-71,67,23,185,222,-20,54,23.87,64123
-3,31,-263,-72,68,29,187,222,-18,54,23.91,64209
-3,32,-262,-72,68,25,185,223,-19,54,23.87,64296
-5,31,-262,-72,68,25,184,223,-21,50,23.93,64382
-2,31,-263,-72,68,28,183,222,-18,52,23.91,64470
-3,31,-263,-72,68,24,184,219,-20,50,23.91,64556
-3,31,-263,-72,68,28,184,221,-22,55,23.87,64643
-2,31,-262,-72,68,25,182,221,-20,54,23.91,64729
-3,31,-262,-71,68,26,184,222,-20,50,23.97,64816
-3,33,-261,-71,68,27,160,344,-22,55,23.99,64902
23,64,-273,-72,67,25,188,295,-19,55,24.09,64989
-4,32,-258,-72,67,28,182,223,-19,53,23.97,65075
-5,32,-263,-71,67,25,182,223,-16,56,23.91,65162
-4,31,-261,-71,67,26,183,220,-23,53,23.97,65249
-3,33,-263,-72,66,27,185,222,-19,51,23.97,65335
-4,32,-263,-72,67,25,184,222,-14,53,23.97,65422
10,-79,-248,-72,68,27,185,223,-17,53,23.93,65508
-4,32,-261,-72,68,23,185,222,-14,54,23.91,65595
-5,31,-262,-72,68,28,183,220,-19,52,24.09,65681
-3,33,-259,-72,67,25,183,221,-19,52,23.97,65768
-6,6,-261,-72,67,25,184,218,-18,54,23.99,65854
3,2,-262,-71,67,28,174,210,-21,54,24.03,65941
-13,27,-263,-72,68,24,184,223,-19,54,23.93,66027
-5,32,-263,-72,68,27,182,220,-19,53,23.93,66114
-4,32,-262,-72,67,27,183,221,-19,53,23.81,66200
-3,31,-266,-72,68,23,185,220,-19,53,23.91,66287
-4,32,-264,-71,67,28,182,223,-19,54,23.91,66373
-2,32,-260,-72,68,26,183,226,-22,51,23.85,66460
-4,33,-264,-72,67,25,182,221,-22,55,23.99,66546
-3,32,-263,-72,68,27,183,222,-20,52,23.93,66633
-4,33,-263,-72,67,24,186,223,-19,54,24.03,66719
-3,31,-261,-72,67,26,184,221,-21,52,23.97,66806
-5,32,-263,-72,68,26,186,223,-18,53,23.97,66892
-2,32,-264,-71,67,25,184,221,-21,57,23.91,66979
-4,31,-263,-71,67,27,181,221,-19,50,23.87,67065
-4,32,-262,-72,67,24,180,224,-16,53,23.93,67152
24,65,-273,-72,68,27,185,225,-20,53,23.93,67238
-3,32,-264,-72,67,26,182,224,-19,52,23.99,67325
-4,32,-262,-72,67,25,186,226,-19,52,23.97,67411
-3,32,-264,-71,67,27,186,226,-19,55,23.91,67499
-2,31,-262,-72,67,26,184,225,-16,53,23.93,67585
-5,28,-265,-71,67,26,183,226,-17,52,23.93,67672
-18,121,-284,-72,67,26,181,225,-19,53,23.91,67759
-4,35,-257,-72,68,28,181,222,-18,55,23.91,67845
-5,31,-266,-72,68,21,183,222,-20,55,23.93,67932
-3,32,-261,-72,67,31,185,222,-20,54,23.87,68018
-2,32,-261,-72,68,23,183,218,-21,52,23.87,68105
-9,48,-265,-72,68,27,183,220,-16,51,23.93,68191
3,63,-267,-71,68,29,201,219,-21,53,23.85,68278
-4,31,-263,-72,67,21,185,222,-19,57,23.85,68364
-4,33,-261,-72,67,30,185,223,-24,55,23.81,68451
-4,33,-261,-72,67,21,182,219,-22,50,23.93,68537
-4,32,-262,-72,67,30,184,222,-20,51,23.85,68624
-3,33,-263,-71,67,25,185,220,-20,55,23.93,68710
-4,32,-262,-72,68,24,184,220,-19,52,23.91,68797
-4,33,-262,-71,67,30,180,218,-18,51,23.91,68883
-4,33,-262,-72,67,23,180,219,-19,53,23.91,68970
-4,31,-261,-72,67,28,183,223,-19,53,23.87,69056
-2,32,-263,-72,68,25,181,220,-19,50,23.87,69143
-4,31,-263,-73,67,25,180,221,-17,54,23.93,69229
-3,31,-261,-72,68,29,182,221,-19,50,23.91,69316
10,23,-273,-72,67,23,168,296,-18,54,23.91,69402
25,61,-275,-71,67,27,194,271,-20,52,23.91,69489
-2,32,-262,-72,67,26,183,222,-20,52,23.97,69576
-5,33,-261,-72,68,24,183,221,-17,55,23.87,69662
-3,32,-262,-71,68,29,182,220,-18,54,23.93,69749
-3,32,-263,-72,68,23,183,223,-18,52,24.03,69835
-5,32,-264,-71,68,28,185,220,-19,53,24.03,69922
-20,113,-274,-73,67,26,184,223,-21,52,23.91,70008
11,-46,-252,-72,67,25,184,223,-20,56,24.03,70095
-2,32,-262,-72,67,28,183,222,-19,53,23.91,70181
1,34,-262,-71,68,24,185,228,-19,52,23.93,70268
-3,32,-261,-72,67,27,185,227,-18,53,23.87,70354
-15,59,-264,-72,68,26,185,219,-23,52,23.99,70441
-11,38,-264,-72,67,25,196,219,-21,51,23.93,70528
-2,-10,-260,-72,68,28,201,218,-18,53,23.87,70615
-3,33,-261,-72,67,23,186,219,-20,53,23.87,70702
-4,31,-263,-72,68,28,181,219,-19,51,23.97,70788
-2,32,-263,-72,67,25,184,222,-18,52,23.85,70875
-5,32,-262,-72,67,24,181,221,-19,52,23.97,70961
-3,33,-263,-72,68,30,182,221,-18,54,23.91,71048
-6,31,-262,-73,68,23,186,222,-17,53,23.97,71134
-4,31,-259,-71,68,29,181,225,-18,51,23.91,71221
-1,33,-260,-71,67,25,181,223,-20,53,23.91,71307
-4,32,-262,-73,67,25,183,221,-18,54,23.85,71394
-3,33,-262,-72,68,29,182,219,-18,54,23.85,71480
-5,32,-261,-72,67,23,183,221,-21,51,23.99,71567
-18,6,-259,-72,68,28,190,274,-21,57,23.93,71653
21,34,-269,-71,67,25,185,221,-18,54,23.99,71740
-4,32,-262,-72,67,25,185,222,-19,52,23.91,71826
-3,31,-262,-72,68,28,184,222,-18,52,23.85,71913
-5,32,-263,-72,68,24,183,220,-19,52,23.97,71999
-4,31,-263,-72,67,28,181,225,-20,52,23.91,72086
-3,31,-262,-72,68,26,185,220,-22,53,23.87,72172
-5,35,-263,-72,68,24,183,221,-20,52,23.87,72259
0,-2,-257,-71,67,30,182,220,-15,53,23.93,72345
-4,32,-264,-73,68,23,183,220,-19,55,23.91,72432
-5,30,-261,-72,67,26,185,220,-19,54,23.91,72518
-2,31,-263,-72,68,28,184,220,-22,54,23.99,72605
-4,31,-263,-72,67,22,181,220,-21,53,24.03,72691
-6,20,-262,-72,67,29,183,221,-15,52,23.93,72778
1,-1,-262,-72,68,24,193,222,-20,52,23.91,72864
-4,33,-267,-72,68,25,181,228,-17,53,23.91,72951
-3,31,-264,-72,67,29,183,228,-20,53,24.05,73037
-2,30,-264,-72,68,21,181,221,-20,55,23.93,73124
-4,31,-262,-71,66,32,183,222,-15,54,23.91,73210
-3,32,-262,-73,68,23,181,221,-18,54,23.99,73297
-5,32,-261,-72,67,26,184,223,-18,53,23.93,73383
-2,33,-263,-72,67,31,182,223,-15,55,23.93,73470
-4,32,-262,-72,67,22,184,225,-19,53,23.87,73558
-5,32,-262,-72,68,30,184,220,-18,54,23.87,73644
-3,31,-262,-72,68,23,183,226,-20,53,23.87,73731
-4,32,-262,-72,68,26,186,220,-19,53,23.87,73817
-37,-2,-253,-71,67,29,159,349,-19,54,23.93,73904
0,19,-266,-72,68,22,187,223,-20,52,24.03,73990
-2,31,-263,-72,68,29,183,223,-20,53,23.87,74077
-3,32,-261,-72,67,24,185,223,-20,53,24.03,74163
-5,32,-263,-72,68,25,185,225,-20,54,23.93,74250
-3,33,-263,-71,67,28,186,224,-20,52,23.85,74336
-4,32,-263,-72,67,23,181,221,-19,59,23.87,74423
-5,31,-262,-71,68,29,182,223,-17,52,23.87,74509
-12,91,-270,-72,67,22,182,224,-19,52,23.81,74596
-3,33,-261,-72,67,28,181,224,-18,55,23.97,74682
-4,31,-263,-73,68,26,183,224,-16,50,23.97,74769
-4,31,-262,-72,68,23,182,223,-20,49,23.97,74855
-3,31,-262,-72,68,30,186,222,-18,53,23.97,74942
-10,61,-267,-72,68,22,181,217,-16,51,23.99,75028
-6,33,-263,-72,68,29,182,220,-19,52,23.99,75115
-2,76,-268,-72,67,27,184,219,-24,53,24.03,75201
-5,33,-261,-73,68,22,184,223,-18,54,24.03,75288
-3,32,-264,-71,67,31,183,222,-20,52,23.93,75374
-1,31,-263,-73,67,22,183,222,-19,52,23.87,75461
-6,31,-262,-72,67,27,183,218,-19,54,24.03,75547
-2,31,-264,-72,67,29,183,223,-22,53,23.91,75634
-5,32,-261,-72,68,21,183,221,-22,51,23.99,75721
-3,32,-262,-71,68,30,185,223,-17,54,23.99,75807
-3,32,-262,-72,68,23,186,221,-20,52,23.93,75894
-4,32,-263,-72,67,26,185,224,-21,52,23.91,75980
-3,32,-263,-72,67,28,187,222,-17,53,23.91,76067
-19,35,-259,-72,67,22,185,221,-24,53,23.91,76153
-4,31,-263,-71,68,29,184,222,-19,54,23.91,76240
-3,31,-262,-72,68,24,185,224,-20,54,24.03,76326
-5,32,-263,-72,68,26,185,224,-17,51,23.99,76413
-6,30,-264,-71,67,28,184,227,-16,52,23.93,76499
-6,32,-256,-71,68,22,184,220,-17,55,23.99,76587
-4,31,-264,-71,67,29,182,222,-17,52,23.93,76673
-4,33,-260,-73,68,25,184,218,-20,55,23.97,76760
-20,99,-273,-72,67,26,183,224,-19,55,23.97,76846
-2,32,-263,-72,67,26,181,222,-19,52,23.91,76933
-4,33,-263,-72,67,24,183,220,-23,55,23.91,77019
-5,31,-260,-72,68,28,183,223,-21,55,23.91,77106
-3,33,-265,-72,68,26,186,227,-18,55,24.03,77192
-2,29,-266,-71,68,24,184,220,-15,52,23.99,77279
0,33,-262,-72,68,27,186,224,-20,54,23.97,77365
4,50,-261,-72,67,24,187,227,-11,52,23.93,77452
-4,33,-259,-72,68,26,182,223,-23,51,23.93,77538
-3,32,-260,-71,66,27,184,223,-19,52,23.93,77625
-6,32,-265,-72,68,24,183,227,-19,52,23.87,77711
-2,32,-263,-72,66,29,186,223,-19,53,24.03,77798
-2,33,-261,-71,67,23,185,223,-21,52,23.93,77885
-5,31,-263,-73,68,27,185,221,-20,53,23.97,77971
-3,32,-263,-71,68,27,184,220,-22,52,24.09,78058
-4,33,-262,-72,68,24,185,222,-19,52,24.05,78144
-3,32,-263,-72,68,29,183,219,-19,52,23.93,78231
-4,31,-263,-72,68,24,183,222,-19,54,23.93,78317
22,48,-272,-71,67,27,181,247,-22,53,24.09,78404
-4,33,-265,-72,68,27,183,223,-14,52,24.05,78490
-4,31,-262,-72,68,24,183,223,-18,53,24.03,78577
-4,32,-262,-72,68,28,184,223,-17,51,23.93,78663
-3,31,-262,-72,67,25,181,221,-16,52,23.93,78750
-4,32,-262,-72,67,26,182,222,-18,54,23.97,78836
-3,34,-261,-72,68,27,185,224,-18,51,23.93,78923
-3,32,-263,-72,67,24,184,223,-17,53,24.03,79009
6,-23,-256,-72,68,27,184,222,-18,53,24.03,79096
-6,32,-265,-73,67,23,185,225,-18,52,23.99,79182
-3,31,-264,-73,66,30,185,222,-20,54,23.97,79269
-4,34,-260,-72,67,23,183,222,-20,53,23.99,79355
-3,32,-263,-71,67,27,181,224,-18,54,23.99,79442
-4,32,-264,-72,68,27,182,222,-18,54,23.93,79528
3,0,-262,-72,68,24,184,219,-19,53,23.97,79616
-3,36,-262,-72,68,28,193,224,-20,54,23.99,79702
-8,77,-267,-72,68,25,190,223,-21,53,23.99,79789
-6,32,-261,-71,68,25,184,219,-22,52,23.99,79875
-3,33,-264,-72,68,28,182,222,-18,52,24.03,79962
-4,31,-262,-72,67,23,183,222,-18,52,23.93,80048
-4,32,-262,-72,67,26,183,220,-19,52,23.93,80135
-3,31,-262,-72,68,27,181,223,-18,53,23.97,80221
-4,32,-262,-72,67,24,183,221,-18,50,23.97,80308
-4,32,-260,-71,68,29,183,222,-18,50,23.93,80395
-4,32,-261,-72,68,24,182,221,-17,51,24.03,80481
-5,33,-264,-72,67,26,180,221,-19,53,24.03,80568
23,67,-272,-72,68,28,159,351,-19,53,24.03,80654
-5,32,-262,-72,67,24,182,221,-20,51,23.91,80741
-5,32,-262,-72,68,28,184,222,-18,54,23.97,80827
-4,33,-263,-72,67,25,183,221,-20,53,23.91,80914
-4,31,-262,-72,68,26,184,222,-19,52,23.99,81000
-6,32,-267,-72,68,28,185,223,-21,51,23.99,81087
-6,29,-266,-70,67,24,180,223,-19,53,23.93,81173
-2,31,-259,-72,67,27,182,219,-18,55,23.99,81260
-2,-17,-252,-72,67,25,182,219,-21,54,23.91,81346
-16,109,-278,-72,67,26,183,220,-18,52,23.91,81433
-4,31,-264,-72,67,25,186,221,-20,52,23.91,81519
-1,31,-262,-71,67,28,184,225,-20,51,23.91,81606
-3,31,-262,-72,68,24,182,222,-20,53,23.91,81692
-4,31,-266,-72,67,27,183,221,-18,53,23.97,81779
-7,44,-261,-72,68,26,177,217,-17,55,23.93,81865
-9,61,-263,-72,68,25,184,219,-19,52,23.99,81952
0,-9,-257,-71,66,28,182,221,-18,53,23.97,82038
-2,31,-264,-72,68,24,182,224,-16,55,23.93,82125
-4,33,-263,-71,67,28,184,220,-15,53,23.93,82211
-4,32,-261,-72,68,24,182,221,-21,52,24.03,82298
-5,32,-261,-71,68,29,181,221,-22,50,23.97,82384
-3,31,-262,-71,68,26,183,223,-19,52,23.93,82471
-6,31,-264,-71,69,25,180,225,-19,54,24.03,82557
-3,33,-262,-71,67,27,183,221,-17,54,23.97,82644
-5,32,-274,-71,67,24,179,219,-18,56,23.99,82732
-4,32,-265,-72,68,27,183,221,-22,53,23.91,82818
-39,10,-252,-73,68,27,183,221,-26,54,23.99,82905
-4,32,-258,-72,68,25,185,219,-20,53,23.99,82991
-4,32,-263,-72,67,27,188,224,-20,52,23.97,83078
-3,32,-263,-72,67,25,184,220,-22,53,23.97,83164
-3,33,-262,-71,67,25,182,222,-23,53,23.91,83251
-4,32,-263,-72,67,27,184,222,-20,52,23.97,83337
-4,32,-264,-72,67,24,185,221,-23,52,24.05,83424
-3,32,-262,-72,67,27,185,218,-19,54,24.03,83510
3,41,-263,-72,68,25,180,219,-18,52,23.93,83597
6,-66,-251,-72,68,27,181,221,-19,54,23.99,83683
-3,33,-262,-72,68,27,183,222,-20,54,23.99,83770
-5,31,-263,-72,67,25,184,224,-18,54,23.87,83856
-3,32,-264,-72,68,26,184,222,-19,51,23.97,83943
-4,33,-263,-72,68,26,183,220,-16,53,23.93,84029
-4,33,-261,-72,67,26,184,223,-21,59,24.03,84116
0,29,-261,-72,67,27,182,222,-20,55,23.93,84202
-6,18,-261,-72,68,26,184,218,-11,53,23.99,84289
-9,75,-268,-71,67,26,184,221,-15,53,23.99,84375
-2,32,-261,-73,68,26,184,219,-17,51,23.97,84462
-3,32,-264,-72,67,27,185,223,-22,52,23.97,84548
-3,36,-268,-72,68,26,183,223,-19,54,23.97,84635
-6,31,-257,-72,67,24,184,223,-20,52,23.97,84721
-3,32,-259,-72,68,29,184,223,-19,52,23.91,84808
-3,33,-264,-72,68,24,185,223,-21,52,23.99,84894
-2,33,-260,-71,68,27,183,222,-21,50,24.03,84981
-5,30,-266,-73,68,26,182,222,-18,55,23.99,85068
-36,-3,-250,-72,67,23,161,358,-19,52,23.97,85154
-5,32,-261,-72,67,29,185,221,-19,54,23.85,85241
-4,32,-257,-72,68,24,184,219,-24,51,23.85,85327
-5,33,-267,-72,68,27,185,223,-16,53,23.97,85414
-2,32,-260,-72,67,26,183,222,-18,54,23.97,85500
-4,30,-263,-71,68,25,184,220,-20,54,23.93,85587
-3,32,-262,-72,68,28,184,220,-20,53,23.87,85673
-4,31,-262,-71,68,24,183,221,-19,52,23.97,85761
-5,32,-264,-72,68,26,182,220,-16,52,23.87,85847
-6,71,-272,-71,68,29,181,213,-19,51,23.87,85934
-5,32,-262,-72,68,22,178,222,-17,52,23.87,86020
-5,32,-262,-71,67,28,185,221,-17,53,23.85,86107
-2,32,-263,-71,67,26,184,224,-17,52,23.93,86193
-5,33,-261,-72,67,24,182,220,-21,48,23.85,86280
-4,33,-263,-71,68,30,181,229,-18,53,23.93,86366
3,-1,-261,-72,67,23,175,215,-19,53,23.91,86453
-4,29,-269,-71,67,28,184,222,-14,54,23.99,86539
-12,53,-262,-72,67,26,183,221,-18,55,23.87,86626
-4,32,-262,-72,67,24,183,222,-16,53,23.81,86712
-3,34,-261,-72,67,29,183,220,-21,53,23.81,86799
-5,33,-262,-72,68,21,182,220,-21,52,23.91,86885
-5,32,-262,-71,67,30,184,221,-21,54,23.85,86972
-2,32,-261,-71,68,24,184,224,-24,54,23.93,87058
-5,30,-266,-72,68,26,182,227,-21,53,23.81,87145
-2,32,-261,-72,68,28,184,229,-17,52,23.97,87232
-6,32,-261,-72,67,24,162,381,-21,54,23.87,87318
22,40,-274,-72,69,28,192,287,-22,53,23.93,87405
-4,31,-266,-72,68,24,180,226,-18,51,23.79,87491
-6,32,-263,-71,68,26,184,220,-21,53,23.79,87578
-4,32,-260,-72,67,27,180,226,-19,53,23.97,87664
-6,32,-264,-72,67,25,184,229,-16,56,23.87,87751
-4,33,-261,-72,68,27,186,226,-16,53,23.85,87837
-5,32,-263,-73,68,25,184,226,-17,50,23.75,87924
-5,32,-263,-72,68,27,184,222,-17,52,23.71,88010
-5,33,-262,-72,67,26,184,225,-16,56,23.81,88097
10,-45,-254,-72,68,24,185,223,-20,54,23.63,88183
-2,32,-262,-72,67,30,181,225,-19,54,23.75,88270
-4,31,-263,-72,67,22,182,222,-17,53,23.75,88356
-6,33,-260,-71,67,27,184,222,-19,52,23.71,88443
-2,31,-265,-72,67,27,185,222,-22,53,23.59,88529
-7,32,-260,-72,67,23,183,220,-21,54,23.63,88616
-4,32,-262,-72,67,29,185,224,-19,56,23.53,88702
1,4,-265,-73,68,24,178,223,-22,52,23.51,88790
-8,55,-266,-72,66,25,184,221,-23,53,23.51,88876
-3,-12,-260,-72,66,27,185,220,-21,53,23.53,88963
-3,32,-260,-73,68,22,185,217,-24,53,23.53,89049
-5,31,-263,-71,67,30,182,219,-22,52,23.51,89136
-2,32,-263,-72,68,26,185,221,-19,51,23.57,89223
-6,31,-263,-72,67,23,186,219,-20,54,23.47,89309
-3,32,-266,-71,67,30,185,219,-23,54,23.45,89396
-3,32,-264,-71,67,23,184,222,-18,54,23.45,89482
-4,25,-262,-71,67,27,181,219,-16,52,23.45,89569
-34,0,-253,-72,67,26,185,224,-16,54,23.51,89655
-3,32,-262,-72,67,24,183,227,-16,52,23.53,89742
-2,31,-268,-71,67,30,183,227,-16,54,23.53,89828
-5,32,-267,-72,69,21,183,229,-22,54,23.51,89915
-4,34,-259,-72,68,28,182,223,-17,53,23.47,90001
-3,32,-262,-72,67,26,184,224,-17,53,23.45,90088
-3,32,-262,-72,67,24,183,225,-20,52,23.41,90174
-4,32,-258,-71,67,30,186,228,-20,52,23.57,90261
-5,33,-261,-74,68,23,182,222,-18,53,23.57,90347
8,-25,-253,-72,68,28,184,220,-21,54,23.63,90434
-3,33,-262,-71,67,25,185,222,-18,54,23.63,90520
-5,32,-263,-72,68,25,182,222,-18,54,23.53,90607
-5,33,-263,-71,67,28,185,223,-18,51,23.63,90693
-3,32,-262,-72,68,24,182,226,-22,54,23.53,90780
-12,31,-277,-72,67,25,184,220,-21,53,23.53,90866
-4,33,-259,-72,68,28,186,220,-19,53,23.47,90953
-13,58,-275,-72,68,24,179,212,-23,51,23.53,91039
-1,31,-262,-71,66,28,183,223,-20,54,23.47,91126
-3,73,-270,-72,68,26,199,223,-19,50,23.57,91213
-3,33,-259,-72,67,24,184,226,-22,56,23.57,91299
-3,31,-260,-73,68,31,184,222,-20,50,23.57,91386
-6,31,-253,-74,67,20,182,221,-18,54,23.71,91472
-3,34,-256,-71,67,32,183,221,-18,52,23.63,91559
-2,33,-263,-72,67,24,184,222,-17,55,23.53,91645
-5,32,-262,-72,68,25,182,221,-19,53,23.53,91732
14,31,-268,-71,67,30,179,227,77,53,23.47,91819
28,62,-276,-73,68,20,182,221,-20,51,23.51,91906
-3,32,-261,-71,67,31,185,221,-21,53,23.51,91992
-4,33,-262,-72,68,23,182,222,-18,52,23.53,92079
-5,32,-262,-72,67,25,187,221,-19,55,23.47,92165
-4,30,-260,-72,68,29,185,222,-18,54,23.59,92252
-3,33,-262,-72,67,22,185,220,-21,50,23.63,92338
-4,31,-261,-71,68,29,186,226,-19,54,23.57,92425
-2,33,-263,-71,67,24,184,221,-22,55,23.53,92511
-4,31,-262,-72,67,25,185,222,-20,52,23.63,92598
0,-17,-253,-72,68,27,184,222,-20,51,23.63,92684
-12,30,-257,-73,67,23,183,221,-21,55,23.69,92771
-3,34,-257,-71,67,30,182,221,-19,53,23.63,92857
-3,31,-265,-72,67,22,186,222,-20,53,23.51,92944
-5,32,-263,-72,68,27,185,222,-17,53,23.65,93031
-4,32,-262,-71,67,27,184,222,-21,55,23.71,93117
-4,32,-263,-72,68,23,183,222,-19,52,23.51,93204
-16,65,-270,-71,68,29,182,220,-19,52,23.69,93290
-6,42,-266,-72,68,24,182,221,-17,52,23.69,93377
2,14,-260,-71,67,26,182,218,-6,53,23.69,93463
-11,69,-266,-72,67,26,182,223,-4,51,23.63,93550
-3,32,-265,-72,68,23,183,222,-20,54,23.59,93636
-4,33,-262,-71,67,30,184,223,-19,52,23.47,93723
-3,35,-261,-73,67,27,183,228,-17,54,23.63,93809
-5,31,-260,-71,68,22,183,224,-18,51,23.59,93896
-3,32,-263,-72,68,31,185,221,-17,52,23.65,93982
-3,32,-262,-72,68,22,184,219,-19,52,23.63,94069
-4,32,-263,-71,68,27,179,224,-22,53,23.63,94155
-4,33,-262,-72,67,27,184,222,-20,51,23.69,94242
-4,31,-260,-72,67,24,184,221,-17,53,23.59,94328
-3,32,-262,-72,67,29,184,220,-21,53,23.51,94415
-2,32,-262,-72,67,24,184,223,-20,53,23.45,94501
-3,32,-261,-72,68,27,184,224,-21,53,23.51,94588
-3,32,-263,-71,66,27,184,218,-23,52,23.45,94674
-5,33,-264,-71,68,24,182,223,-20,52,23.57,94761
-3,32,-260,-72,67,28,184,222,-17,53,23.47,94848
-3,32,-262,-72,68,24,185,220,-21,55,23.47,94935
-3,32,-263,-71,68,26,183,222,-18,52,23.47,95021
-5,32,-262,-71,68,26,183,222,-18,55,23.47,95108
-4,33,-262,-72,68,25,180,219,-20,52,23.41,95194
-3,31,-264,-72,67,27,182,224,-18,52,23.45,95281
-5,34,-263,-72,68,24,185,220,-16,52,23.53,95368
-4,33,-262,-72,67,26,182,218,-15,53,23.57,95454
-3,31,-262,-72,68,26,184,220,-18,52,23.51,95541
-3,31,-262,-72,68,25,181,220,-18,51,23.51,95627
-4,31,-265,-73,68,27,181,219,-19,53,23.45,95714
-3,32,-262,-72,68,25,182,221,-18,55,23.59,95800
-3,32,-264,-72,67,26,183,219,-18,55,23.57,95887
-2,31,-266,-72,67,26,182,221,-18,54,23.51,95973
-4,31,-261,-71,67,25,187,223,-19,84,23.59,96060
-4,31,-264,-71,67,27,185,221,-15,52,23.65,96146
-3,32,-265,-71,67,25,185,220,-22,53,23.53,96233
-5,33,-260,-71,66,26,184,222,-19,53,23.53,96319
-5,31,-264,-72,67,26,184,220,-20,55,23.51,96406
-5,31,-261,-71,67,25,183,218,-17,55,23.63,96492
-3,32,-252,-73,68,26,177,217,-19,52,23.47,96579
-5,32,-263,-72,68,26,182,220,-19,53,23.63,96665
-5,32,-268,-73,69,26,181,218,-19,55,23.59,96752
-6,35,-262,-72,68,27,181,220,-17,51,23.53,96838
-4,32,-261,-73,68,26,184,224,-19,51,23.45,96925
-3,32,-262,-73,68,26,183,223,-19,53,23.59,97011
-4,32,-261,-72,68,26,183,224,-19,55,23.59,97098
-4,32,-263,-72,68,26,185,221,-21,55,23.47,97184
-4,33,-263,-71,68,27,183,223,-18,51,23.51,97271
-3,32,-261,-71,67,25,185,220,-18,52,23.41,97357
-3,31,-263,-72,68,26,181,222,-19,53,23.63,97444
-5,33,-260,-71,67,26,183,219,-21,52,23.79,97530
-3,31,-260,-71,67,26,183,221,-19,51,23.63,97617
-4,30,-266,-71,66,26,183,220,-20,53,23.47,97703
-4,32,-263,-71,66,26,185,220,-17,50,23.47,97790
-3,32,-263,-71,67,26,184,222,-20,53,23.47,97878
-3,30,-262,-72,67,26,183,220,-21,55,23.47,97964
-5,32,-262,-71,67,26,181,218,-20,52,23.51,98051
-5,32,-265,-72,67,25,181,218,-20,54,23.63,98137
-5,32,-264,-71,67,25,177,221,-20,53,23.65,98224
-6,32,-266,-71,67,26,180,218,-18,51,23.53,98310
-5,33,-261,-72,68,26,184,220,-20,55,23.65,98397
-5,33,-261,-72,67,26,178,218,-17,54,23.63,98483
-6,32,-262,-72,68,26,181,220,-19,51,23.63,98570
-4,31,-263,-72,68,26,179,220,-20,54,23.53,98656
-4,32,-262,-72,68,26,175,218,-19,52,23.53,98743
-4,33,-263,-72,68,26,181,222,-17,51,23.59,98829
-4,31,-262,-71,67,25,180,224,-20,51,23.59,98916
-3,32,-263,-72,67,26,181,220,-18,54,23.63,99002
-3,33,-262,-71,67,26,184,219,-17,51,23.63,99089
-3,32,-264,-72,67,26,182,220,-20,54,23.59,99175
-4,31,-265,-72,68,26,180,220,-18,51,23.59,99262
-4,33,-263,-72,68,26,183,222,-14,52,23.71,99348
-5,32,-264,-71,68,26,180,221,-20,53,23.59,99435
-2,33,-261,-72,67,26,185,222,-18,52,23.57,99521
-4,32,-265,-72,67,26,183,221,-19,54,23.63,99608
-8,33,-262,-72,67,23,136,313,110,53,23.65,99694
-9,32,-245,-69,67,26,214,161,96,55,23.63,99781
-4,29,-254,-71,69,18,223,83,-7,52,23.87,99867
-10,30,-256,-71,67,30,201,197,50,54,23.87,99954
-3,37,-275,-71,67,32,190,179,10,54,23.63,100040
-4,35,-267,-73,66,19,197,183,-58,52,23.59,100127
-7,41,-268,-73,67,36,156,235,-58,52,23.45,100214
-8,48,-273,-72,67,20,189,246,-7,52,23.35,100300
-17,30,-275,-74,69,28,162,244,-18,51,23.27,100387
-47,56,-238,-64,73,29,149,272,-46,53,23.21,100473
-6,27,-301,-71,70,21,171,204,-11,51,23.03,100560
-68,53,-244,-74,68,33,167,196,26,52,23.15,100647
9,56,-262,-74,64,23,174,227,-11,53,23.15,100733
-19,-6,-140,-105,57,35,201,176,16,51,23.05,100820
-30,61,-234,-82,67,21,190,198,-14,53,22.95,100907
-14,2,-191,-52,72,33,180,203,-40,56,23.05,100994
-4,49,-314,-72,68,25,179,185,-19,53,23.15,101080
-66,-15,-151,-65,70,30,200,196,-80,54,23.03,101167
-1,2,-152,-73,67,24,173,198,-7,55,23.03,101254
-48,-31,-41,-65,67,41,172,197,-20,50,22.93,101340
-11,-7,-185,-76,68,22,182,216,-41,52,22.93,101427
-37,90,-256,-74,63,36,180,208,-54,48,23.09,101513
92,46,-276,-81,60,27,165,246,-74,52,22.89,101600
-14,65,-146,-80,67,33,174,218,-17,51,22.87,101687
90,88,-400,-37,75,35,195,207,-16,50,22.93,101773
62,28,-286,-80,60,30,171,246,-25,51,22.95,101860
-20,29,-465,-56,74,46,193,212,-12,52,22.87,101946
-16,19,-134,-33,76,31,200,318,-76,53,22.81,102033
-2,-79,-361,-84,64,27,194,120,57,50,22.83,102120
-22,16,-345,-106,57,29,163,263,9,52,22.83,102206
-50,55,-298,-73,60,29,214,195,-34,53,22.75,102293
-23,61,-379,-54,74,32,186,220,-57,53,22.81,102379
4,53,70,-42,78,43,185,304,-6,54,22.83,102466
-1,-19,-180,-4,92,36,165,276,-40,51,22.81,102552
-75,126,-395,-100,49,69,185,229,-21,49,22.81,102639
-5,74,121,-94,49,65,173,170,-19,51,22.87,102726
-59,80,170,-36,87,61,185,146,-29,52,22.77,102812
11,-2,-394,-121,50,58,171,126,-31,53,22.77,102899
-108,-21,-396,-28,81,64,179,217,-46,52,22.87,102985
81,16,-156,-102,49,73,167,226,-52,50,22.77,103072
55,-1,-503,-57,68,67,186,189,-21,51,22.71,103159
-37,76,-243,-35,79,59,163,182,32,50,22.87,103245
-31,19,-511,-38,75,49,182,303,-22,53,22.69,103332
-104,13,-512,-41,79,22,192,206,-24,52,22.83,103419
51,47,7,-93,64,-25,172,181,-3,55,22.81,103505
-27,40,-435,-110,66,1,190,206,39,51,22.63,103592
48,46,-260,-10,92,-32,182,207,-27,54,22.63,103678
-30,55,-121,-133,54,-33,199,186,-63,52,22.47,103766
-47,49,-511,-40,96,-65,159,205,2,52,22.53,103852
-143,38,-475,-66,75,-54,200,206,-130,53,22.53,103939
-39,41,-232,-38,92,-61,140,218,14,53,22.59,104026
98,71,-117,-70,76,-62,170,168,-34,52,22.41,104112
-47,43,-385,-82,67,-42,205,181,-48,51,22.41,104199
99,-24,151,-73,76,-8,178,144,8,51,22.43,104286
41,82,-504,-108,52,7,172,235,-30,53,22.43,104372
9,79,-127,-38,74,25,196,163,-37,47,22.25,104459
88,75,-208,-59,65,56,178,80,-69,51,22.25,104545
110,26,11,-64,63,105,163,157,65,53,22.23,104632
89,99,-291,-124,28,131,194,182,-91,53,22.31,104719
135,18,31,-132,30,157,173,270,42,48,22.13,104805
121,49,-130,-79,37,138,159,302,-1,50,22.17,104892
86,-43,5,41,80,131,226,-3,-58,45,22.19,104978
132,-16,-370,-19,29,148,152,67,105,48,22.19,105065
50,128,-102,-113,32,169,202,66,-67,47,22.13,105152
74,23,390,-49,94,154,215,-16,18,48,22.25,105238
-132,-19,-254,-105,51,171,210,352,-149,45,22.13,105325
-185,-66,-428,-7,77,127,252,70,-22,47,22.31,105412
115,40,-506,-16,37,95,185,129,25,45,22.41,105498
-83,23,-363,101,73,44,206,169,-54,40,22.35,105585
-23,21,-512,124,71,26,179,204,-126,42,22.23,105672
-56,13,-512,61,59,36,179,96,-14,40,22.23,105758
-60,-80,-512,58,11,-11,170,123,13,45,22.23,105845
-68,43,-193,-5,-70,-64,104,150,22,43,22.31,105932
64,-89,-134,-77,-34,-75,136,102,39,44,22.11,106018
-10,82,-512,6,98,-68,155,189,-55,44,22.35,106105
20,30,-285,109,206,-90,124,103,37,34,22.25,106191
125,-16,-512,-95,195,-104,99,151,35,35,22.23,106278
-36,50,110,-257,107,-113,185,141,36,43,22.31,106365
-59,4,-359,-384,-38,-139,104,203,34,45,22.29,106452
-37,-28,-315,-98,49,-183,179,82,81,47,22.29,106539
-90,60,-12,-10,47,-150,119,156,68,46,22.29,106626
-103,-9,-71,30,38,-136,166,107,90,42,22.35,106712
-59,30,-276,80,172,-98,91,207,59,46,22.35,106799
-81,46,100,-76,238,-89,164,144,36,47,22.37,106886
12,24,-64,-138,109,-119,146,43,78,50,22.37,106972
-44,-38,189,0,-77,-123,122,112,110,54,22.41,107059
13,32,273,-93,-21,-92,73,284,53,63,22.37,107146
5,28,-86,-171,91,-75,177,102,80,75,22.25,107232
6,33,-156,-78,224,-61,149,132,36,83,22.25,107319
1,-38,10,-7,181,-75,71,238,58,88,22.19,107405
185,29,159,-13,79,-84,62,234,32,98,22.17,107492
0,59,-293,-124,13,-73,93,153,0,119,22.13,107578
-7,5,-196,-155,51,-53,96,116,120,146,22.23,107665
-92,-14,-512,-1,110,-76,108,-97,141,144,22.05,107752
-48,69,-61,95,109,-103,152,153,34,148,22.13,107838
-40,35,171,-44,170,-75,69,192,113,189,22.11,107925
122,78,-496,-330,140,-63,163,218,55,306,22.11,108012
-106,-24,-82,-543,96,-46,183,122,15,0,22.19,108098
-235,-19,-218,-397,-258,-258,113,97,132,2160,22.07,108185
40,67,97,-140,98,-63,179,204,82,2149,22.17,108272
-96,-20,-512,83,74,-48,165,175,86,0,22.23,108359
35,-95,-512,383,162,-59,121,139,129,443,22.17,108445
-77,85,-512,315,208,-38,201,142,44,324,22.23,108532
-44,-53,-512,77,121,-16,119,74,55,321,22.37,108619
76,116,-282,-133,7,-12,112,133,-53,369,22.37,108705
77,67,-43,-212,-96,-3,185,125,124,431,22.31,108792
-30,-5,-290,-58,-86,-1,165,199,63,446,22.53,108879
-79,-24,-512,-132,-251,2,129,229,101,479,22.41,108966
-52,51,-86,-267,-402,22,175,128,153,0,22.29,109052
-113,-72,-323,-515,-421,41,204,77,109,0,22.51,109139
72,75,-129,-307,-74,90,153,117,205,0,22.57,109227
-99,-22,-371,75,528,140,141,66,139,0,22.63,109313
-128,3,-512,399,874,163,124,86,92,374,22.65,109400
88,-43,19,492,689,147,167,115,92,252,22.65,109487
53,130,-512,109,115,130,126,90,54,235,22.69,109573
39,-19,-342,-279,-234,128,126,31,106,290,22.59,109660
-105,38,-27,-405,-373,115,183,22,66,385,22.59,109747
12,7,-475,-291,-115,154,268,104,-75,352,22.53,109834
243,62,119,108,387,167,176,175,63,257,22.43,109921
-70,2,17,232,472,211,71,122,105,200,22.57,110007
-119,44,-512,92,248,235,156,185,-11,209,22.53,110094
-23,179,-234,-142,1,247,168,54,49,275,22.53,110181
79,120,-512,-346,-118,250,155,122,10,419,22.51,110268
64,-36,-29,-239,-20,251,156,65,-9,482,22.65,110354
-147,52,-221,-91,132,285,144,38,90,447,22.43,110441
-117,74,-512,144,254,271,109,121,32,391,22.43,110528
-47,147,72,67,122,270,207,76,3,424,22.31,110614
2,146,-512,-251,-170,262,169,135,-19,0,22.65,110701
-20,95,-512,-544,-333,244,136,117,-71,0,22.65,110788
-67,-126,-70,-682,-315,243,250,154,61,0,22.57,110875
92,17,-228,-426,11,290,321,200,-93,0,22.57,110961
-257,149,-512,254,343,296,227,169,8,0,22.65,111048
109,-71,-339,512,433,297,240,128,36,0,22.71,111135
61,-44,-471,537,236,308,245,140,-26,0,22.81,111221
-170,16,-360,216,-196,290,190,74,-24,0,23.03,111308
-113,95,-512,52,-357,266,124,42,26,565,22.93,111395
132,74,-134,-62,-292,304,88,-5,92,586,23.05,111481
-75,81,181,-11,-36,335,176,57,54,0,23.21,111568
-87,-31,-406,-41,166,366,136,115,53,0,23.21,111655
198,182,-512,-86,220,402,171,291,-113,0,23.11,111741
-216,-51,-275,-183,148,410,164,15,82,0,23.21,111828
-60,-43,-126,-257,13,407,196,78,-39,0,23.27,111916
104,20,-166,-130,-55,397,212,82,-76,0,23.27,112002
134,228,-180,-24,-77,403,209,-150,41,0,23.45,112089
-77,100,-512,165,-46,384,207,117,-58,0,23.47,112176
-62,-9,-512,171,-52,381,188,65,-103,0,23.35,112263
180,112,-512,-70,-104,388,205,-12,-51,0,23.47,112349
6,149,-467,-397,-227,397,222,130,-57,0,23.47,112436
99,54,135,-241,-207,400,208,244,-59,0,23.47,112523
-114,60,-278,95,-9,412,197,104,-39,0,23.45,112609
183,98,245,303,259,428,135,200,-59,0,23.41,112696
-87,105,-203,291,374,448,112,155,-32,0,23.41,112783
151,61,146,56,208,445,127,181,-54,0,23.35,112869
26,103,-416,-188,-43,432,125,215,-90,0,23.41,112956
-193,50,-512,-332,-177,446,202,153,-123,0,23.39,113043
16,50,-376,-185,-68,447,106,204,-130,0,23.39,113130
24,5,65,32,150,453,184,157,-189,0,23.33,113216
-104,-17,-512,116,211,468,96,225,-124,742,23.41,113303
55,130,-408,73,165,455,130,52,-79,719,23.45,113390
-9,61,-512,-81,30,452,43,149,-96,0,23.39,113476
14,-12,-315,-368,-77,464,92,169,-124,841,23.45,113563
-153,68,-233,-560,-92,462,130,154,-113,759,23.65,113650
-61,40,-437,-536,-90,452,248,163,-217,1489,23.51,113737
129,62,-400,-77,-100,420,274,147,-341,1098,23.51,113824
-74,55,-512,524,86,397,95,179,-128,1321,23.35,113910
-13,109,-477,601,302,416,125,206,-167,0,23.69,113997
-109,31,-125,313,285,450,108,85,-143,0,23.39,114084
-133,-30,265,-159,-18,455,19,292,-217,1025,23.51,114171
48,49,-469,-413,-305,443,59,194,-203,969,23.35,114258
2,-53,-221,-310,-255,430,55,201,-202,975,23.33,114344
132,44,-342,-141,-32,441,24,257,-135,1025,23.35,114432
122,5,-5,213,230,422,69,130,-150,908,23.35,114519
-140,23,-499,212,221,434,29,211,-208,734,23.35,114606
-33,53,194,69,92,436,-9,198,-145,723,23.17,114692
60,135,-252,-180,-82,430,21,145,-248,856,23.09,114779
-58,41,-433,-215,-117,428,-31,175,-116,885,23.15,114866
-65,62,-512,-268,-72,430,-15,147,-120,898,23.05,114953
83,7,222,30,145,410,20,215,-137,913,23.03,115039
-93,90,-402,136,148,397,9,173,-161,509,23.09,115126
109,99,-31,241,-19,366,-43,195,-159,296,22.95,115213
135,50,-93,8,-40,376,-42,164,-167,219,22.95,115300
-79,9,-279,-240,-18,373,-51,279,-184,124,22.99,115386
71,53,-253,854,1534,434,-31,336,-191,163,22.81,115473
51,170,-512,114,454,319,-36,277,-304,75,22.75,115560
-82,15,252,1,-586,276,-51,339,-267,47,22.83,115647
5,131,-320,-12,28,284,-42,325,-276,57,22.69,115733
-1,106,-475,-97,11,290,-36,315,-262,60,22.75,115820
16,109,-300,-56,26,255,-37,327,-254,57,22.71,115907
-35,83,-280,-64,44,231,-39,337,-261,55,22.69,115993
-93,80,-266,-97,53,186,-39,338,-262,55,22.69,116080
-92,55,-448,-82,49,120,-45,344,-263,56,22.59,116167
-60,67,-153,-77,63,65,-43,346,-260,57,22.57,116253
-43,62,-194,-82,62,19,-43,346,-260,59,22.59,116340
-9,32,-298,-75,66,32,-29,335,-249,57,22.51,116426
-7,40,-286,-70,69,34,-25,320,-253,54,22.53,116513
-12,30,-268,-74,68,21,-21,318,-252,58,22.63,116600
-6,38,-261,-74,69,25,-22,322,-249,54,22.69,116686
-8,37,-276,-74,69,35,-20,320,-252,56,22.69,116773
-1,38,-264,-74,69,26,-21,321,-252,55,22.57,116859
-6,37,-251,-74,68,23,-22,319,-254,58,22.71,116946
-9,33,-255,-72,67,31,-22,320,-253,57,22.65,117033
-8,28,-262,-73,70,28,-23,316,-249,56,22.87,117120
-11,36,-268,-76,69,22,-26,316,-256,58,22.87,117207
-17,27,-256,-73,69,28,-25,315,-253,57,22.99,117293
-6,30,-264,-72,69,33,-29,315,-253,59,23.15,117380
-1,31,-261,-73,69,27,-24,317,-255,60,23.15,117467
-5,29,-257,-73,69,22,-22,319,-254,59,23.05,117553
-14,34,-277,-73,68,31,-22,321,-254,60,23.15,117640
-3,34,-261,-71,69,32,-24,319,-252,57,23.17,117726
-1,34,-255,-73,68,23,-18,320,-257,56,23.15,117813
-9,30,-275,-72,69,26,-19,320,-254,56,23.15,117899
-4,38,-263,-73,68,32,-20,320,-251,59,23.27,117986
-9,32,-262,-75,68,27,-20,319,-257,56,23.21,118073
-9,32,-270,-73,69,24,-20,319,-253,56,23.35,118159
-11,29,-262,-74,68,31,-19,319,-255,58,23.35,118246
-4,34,-259,-73,68,29,-20,318,-253,57,23.17,118332
-9,34,-258,-72,69,24,-24,322,-252,56,23.23,118419
-10,32,-261,-74,68,28,-24,322,-255,56,23.27,118506
-7,31,-266,-73,68,30,-23,320,-252,58,23.39,118592
-8,32,-262,-73,69,27,-19,322,-256,60,23.59,118679
-8,34,-262,-73,68,26,-23,317,-253,57,23.39,118765
-9,32,-263,-73,69,25,-22,320,-255,55,23.27,118852
-9,33,-262,-72,68,31,-22,323,-255,57,23.27,118938
-7,33,-261,-73,68,28,-21,321,-253,57,23.23,119025
-10,32,-264,-73,68,23,-21,321,-253,59,23.27,119112
-8,32,-262,-72,69,31,-24,324,-255,60,23.35,119198
-6,33,-263,-72,69,30,-23,321,-252,52,23.33,119285
-8,33,-261,-73,69,23,-21,321,-255,57,23.35,119371
-8,32,-261,-73,68,28,-23,318,-253,56,23.45,119458
-5,33,-263,-72,68,33,-20,320,-257,54,23.35,119545
-7,32,-262,-73,68,25,-24,316,-259,59,23.35,119631
-9,32,-263,-73,68,25,-22,320,-258,57,23.39,119718
-9,32,-263,-72,69,31,-20,321,-255,57,23.57,119804
-6,31,-263,-73,68,29,-24,321,-254,60,23.39,119891
-8,32,-261,-73,68,26,-23,317,-256,59,23.51,119977
-8,31,-264,-73,69,28,-21,318,-252,57,23.45,120065
-6,33,-263,-72,69,30,-23,321,-257,57,23.39,120152
-8,32,-262,-73,68,26,-22,321,-255,53,23.47,120238
-8,32,-266,-73,69,26,-24,321,-255,58,23.39,120325
-7,31,-261,-72,69,30,-24,320,-255,58,23.39,120411
-7,32,-263,-73,68,28,-22,320,-253,56,23.33,120498
-8,33,-264,-73,69,26,-24,320,-252,58,23.39,120585
-7,32,-262,-73,69,28,-22,321,-253,56,23.27,120671
-7,32,-261,-73,69,29,-23,322,-257,59,23.39,120758
-7,32,-261,-73,68,26,-22,320,-254,59,23.33,120844
-9,32,-259,-73,68,27,-21,319,-255,58,23.33,120931
-7,32,-266,-72,69,30,-20,317,-256,59,23.29,121017
-8,31,-259,-73,69,28,-23,322,-255,60,23.29,121104
-8,32,-262,-73,69,26,-20,321,-256,55,23.29,121191
-7,31,-262,-73,69,28,-24,322,-252,57,23.39,121277
-6,32,-262,-73,68,29,-23,321,-253,56,23.57,121364
-7,31,-263,-73,68,27,-22,319,-258,55,23.35,121450
-8,32,-263,-73,68,27,-21,321,-253,55,23.29,121537
-8,33,-263,-72,68,28,-24,320,-254,56,23.39,121623
-8,31,-265,-73,69,27,-20,321,-253,58,23.27,121710
-8,33,-262,-73,69,27,-20,321,-254,53,23.27,121797
-7,32,-261,-73,69,28,-23,319,-256,57,23.41,121883
-7,32,-262,-73,69,28,-21,318,-252,58,23.45,121970
-6,31,-261,-73,68,26,-23,320,-255,56,23.21,122056
-7,31,-262,-73,69,27,-20,319,-252,59,23.39,122143
-7,32,-261,-73,68,28,-23,321,-256,53,23.51,122229
-6,32,-261,-73,68,28,-25,320,-252,58,23.29,122316
-9,31,-262,-73,69,27,-23,322,-253,57,23.29,122403
-8,32,-264,-73,69,27,-24,318,-254,56,23.35,122489
-9,32,-263,-73,68,28,-23,319,-256,59,23.35,122576
-9,32,-263,-73,68,27,-23,322,-251,57,23.39,122662
-8,31,-262,-72,69,28,-23,321,-254,60,23.59,122749
-7,31,-262,-73,69,28,-25,320,-253,58,23.39,122835
-8,32,-261,-73,69,27,-22,319,-258,57,23.59,122923
-8,32,-262,-73,68,28,-21,322,-256,55,23.41,123010
-8,32,-261,-73,69,28,-21,319,-254,56,23.41,123096
-6,32,-262,-73,69,28,-24,321,-258,57,23.45,123183
-9,33,-263,-72,69,27,-22,322,-253,52,23.45,123269
-8,33,-262,-73,69,27,-22,322,-256,58,23.41,123356
-7,32,-262,-73,69,28,-20,319,-255,53,23.45,123443
-8,34,-263,-72,69,28,-22,318,-253,56,23.45,123529
-8,31,-264,-73,69,28,-24,318,-254,58,23.29,123616
-7,32,-262,-72,69,28,-20,317,-255,57,23.39,123702
-7,32,-262,-72,68,27,-19,320,-257,61,23.39,123789
-7,31,-264,-73,69,28,-22,320,-254,57,23.33,123875
-7,33,-262,-73,69,28,-22,320,-252,56,23.33,123962
-8,33,-263,-73,69,28,-24,318,-255,56,23.39,124049
-9,32,-263,-73,68,27,-22,319,-252,58,23.47,124135
-9,33,-263,-73,69,28,-25,320,-256,57,23.33,124222
-6,31,-262,-73,68,28,-24,321,-257,60,23.35,124308
-7,33,-261,-73,68,28,-24,320,-255,59,23.45,124395
-7,31,-261,-73,68,28,-22,321,-254,57,23.41,124481
-6,32,-264,-73,69,28,-23,318,-254,59,23.41,124568
-7,33,-262,-73,69,28,-24,320,-254,56,23.41,124655
-7,31,-263,-73,69,28,-24,317,-255,54,23.41,124741
-8,32,-263,-73,69,28,-25,319,-255,56,23.41,124828
-8,31,-259,-72,69,27,-22,325,-251,55,23.41,124914
-9,33,-264,-73,68,28,-26,318,-252,59,23.45,125001
-8,32,-264,-74,68,28,-21,320,-252,58,23.35,125087
-8,33,-262,-73,69,28,-25,320,-254,52,23.51,125174
-8,31,-262,-73,69,28,-29,316,-253,58,23.45,125261
-7,31,-263,-73,69,28,-28,317,-252,55,23.47,125347
-8,31,-265,-73,69,28,-24,322,-254,58,23.47,125434
-7,32,-261,-72,69,28,-21,320,-254,55,23.39,125520
-6,31,-261,-73,69,28,-25,322,-254,59,23.47,125607
-7,33,-262,-73,69,28,-22,321,-257,53,23.47,125693
-8,32,-263,-74,68,27,-21,316,-257,57,23.51,125780
-9,32,-262,-73,69,28,-22,320,-254,56,23.53,125868
-8,32,-262,-73,68,28,-26,321,-253,56,23.35,125954
-8,32,-261,-73,69,27,-26,320,-254,59,23.47,126041
-7,32,-261,-73,69,28,-25,322,-251,55,23.47,126127
-8,32,-262,-72,69,27,-28,320,-252,57,23.35,126214
-7,32,-262,-73,68,27,-22,322,-253,58,23.41,126301
-7,33,-262,-73,68,28,-24,320,-253,56,23.45,126387
-9,31,-264,-72,68,28,-28,317,-256,57,23.39,126474
-8,31,-262,-73,68,28,-30,316,-254,55,23.45,126560
-9,34,-262,-72,68,28,-25,320,-255,58,23.45,126647
-8,33,-262,-73,69,28,-24,318,-250,57,23.47,126733
-7,42,-270,-72,71,29,-26,225,-358,54,23.47,126820
-3,25,-273,-73,70,29,-13,298,-227,55,23.35,126907
-10,34,-258,-73,68,29,-14,283,-260,60,23.35,126993
-4,32,-276,-72,67,25,-36,325,-251,58,23.45,127080
13,30,-247,-72,69,30,-28,301,-356,56,23.29,127166
-17,35,-273,-74,69,28,7,302,-234,54,23.27,127253
8,48,-236,-71,67,26,-22,312,-240,54,23.23,127340
39,62,-298,-69,71,26,6,306,-279,58,23.17,127426
12,35,-177,-67,74,36,-12,215,-259,58,23.17,127513
-27,20,-11,-113,53,22,-35,311,-243,56,23.17,127599
60,-4,-359,-44,82,29,-21,296,-250,57,23.11,127686
23,23,-406,-89,64,26,14,252,-243,56,23.15,127773
-46,12,-512,-66,73,33,-28,241,-214,59,23.15,127859
59,71,-164,-72,73,23,-24,325,-269,60,23.15,127946
-57,151,-512,-33,90,28,-35,287,-236,56,23.09,128032
-31,-67,-363,-67,71,27,-16,274,-226,57,23.11,128119
-15,6,-205,-75,62,33,-23,448,-317,58,23.09,128206
-1,12,-192,-72,72,34,-33,275,-269,59,23.09,128292
20,-6,151,-66,64,38,-32,259,-229,58,23.15,128379
-20,12,-512,-67,69,46,-44,272,-215,59,23.09,128465
-17,11,-135,-66,72,54,-43,183,-144,58,22.93,128552
-71,39,-292,-78,60,65,-54,237,-222,59,23.09,128640
-55,-14,-321,-98,50,89,-39,198,-233,59,23.05,128726
-2,-47,-463,-69,64,98,-25,282,-253,59,23.05,128813
13,99,-404,-97,56,92,-53,239,-210,56,22.93,128899
-130,-33,-178,-59,63,89,-29,240,-201,60,22.93,128986
117,92,-293,-76,58,86,-46,222,-265,63,22.87,129073
85,121,-246,-39,81,95,-31,192,-219,68,23.05,129159
112,139,-111,-115,67,115,-43,213,-196,78,23.05,129246
181,59,-199,-218,63,111,-26,207,-213,104,22.99,129333
55,-3,-233,-336,70,120,-55,263,-207,0,23.05,129420
29,-15,-158,-532,63,160,60,238,-215,949,23.05,129506
-146,-63,-391,-584,66,224,72,343,-371,967,22.99,129593
102,103,-102,-324,23,318,39,292,-246,969,22.93,129680
-146,11,-432,100,-106,419,29,260,-254,972,22.93,129767
-31,-9,-264,750,-95,510,-54,282,-228,88,22.95,129854
-5,25,-346,393,-166,646,-78,326,-224,55,22.89,129940
-62,-39,-16,-28,1,652,-67,201,-169,61,22.95,130027
21,-26,-211,-70,6,473,-71,377,-222,60,22.89,130113
119,90,-327,-57,52,216,-76,301,-234,58,22.89,130200
-83,39,-512,-47,70,71,-72,264,-243,57,22.83,130287
-87,-7,-45,-63,76,62,-53,261,-297,55,22.89,130373
-19,60,-512,-78,69,70,-94,221,-174,53,22.89,130460
-119,-33,-375,-8,82,104,-96,257,-196,57,22.81,130547
-35,21,-428,-6,94,91,-60,353,-263,55,22.77,130633
-125,-12,-394,-43,65,91,-146,501,-316,54,22.65,130720
130,54,85,7,95,94,-66,342,-284,53,22.71,130806
228,82,-152,-29,20,122,-101,106,-165,48,22.77,130893
-153,-58,-294,106,22,113,-134,130,-161,43,22.77,130980
-157,18,-315,351,30,111,-105,130,-186,35,22.65,131067
-147,-71,-333,364,-37,175,-184,234,-118,26,22.57,131154
-22,10,2,405,-2,182,-180,263,-165,26,22.57,131240
39,-87,246,256,60,216,-216,236,-170,24,22.59,131328
-100,44,-512,-91,79,262,-262,222,-166,29,22.63,131415
-74,13,-308,-401,134,315,-205,84,-135,33,22.63,131502
134,44,-147,-624,160,352,-140,202,-266,37,22.59,131588
136,-32,463,-779,98,361,-121,98,-147,49,22.65,131675
64,-8,-149,-549,95,335,-42,-9,-136,55,22.75,131762
-193,-62,-355,122,-14,275,-184,242,-171,45,22.77,131849
37,-3,-391,278,-20,225,-192,164,-82,40,22.77,131935
55,113,-415,182,-85,236,-161,14,-95,38,22.65,132022
-171,-93,-4,111,-152,236,-271,258,-139,32,22.69,132109
-37,-6,-307,2,-143,326,-229,65,-75,41,22.71,132195
-28,13,-512,-95,-46,408,-192,220,-80,45,22.63,132282
-70,-81,-74,-105,101,457,-211,152,-20,44,22.63,132369
-95,72,-512,-62,170,478,-247,305,-53,46,22.59,132455
-97,100,99,-100,121,495,-201,197,-63,45,22.63,132542
-14,55,-512,-118,83,496,-208,219,0,47,22.63,132629
11,-23,-219,-152,73,481,-218,109,10,48,22.63,132715
165,95,-135,-96,3,416,-174,151,7,46,22.83,132802
-8,71,-512,-61,34,365,-227,292,42,44,22.69,132889
122,52,-390,179,141,334,-205,-39,61,37,22.75,132975
-104,131,-335,295,268,297,-224,152,-3,33,22.77,133062
-80,-25,-231,196,169,275,-288,138,26,40,22.71,133149
10,-22,-256,-265,53,301,-215,134,9,47,22.75,133236
135,-16,-512,-561,-184,306,-249,130,63,68,22.65,133322
70,69,-355,-2049,-1,-1,-219,189,64,104,22.65,133409
-41,36,-286,-531,2,280,-114,104,-22,302,22.75,133496
100,90,161,-500,311,298,-125,157,55,579,22.75,133583
46,-1,-512,-236,249,246,-117,188,91,570,22.63,133669
77,19,-115,-75,106,150,-86,163,2,563,22.63,133756
39,141,89,-44,-117,104,-117,191,40,0,22.71,133843
-100,-24,-512,298,114,79,-156,231,12,148,22.71,133931
180,104,-512,21,159,124,-200,223,71,138,22.75,134017
46,33,-209,-55,-50,94,-137,157,7,117,22.75,134104
-96,5,-38,145,-166,78,-169,160,28,90,22.75,134191
-103,72,-512,107,-33,114,-138,139,92,80,22.81,134277
-25,31,149,25,104,158,-86,170,77,77,22.77,134364
-13,79,94,199,-32,123,-180,178,99,78,22.81,134451
25,39,18,29,-363,111,-157,125,51,89,22.83,134537
97,74,-94,-171,-422,147,-200,96,111,115,22.93,134624
-165,56,-512,-202,-159,162,-180,223,1,145,22.81,134711
-17,45,-99,-108,307,208,-140,103,80,146,22.71,134798
82,95,-512,86,629,206,-135,226,125,127,22.71,134884
3,33,-137,310,547,193,-190,171,60,105,22.93,134971
11,3,-284,199,182,167,-178,194,59,88,22.83,135058
-31,67,-512,-40,-131,142,-208,216,92,79,22.99,135145
-123,32,96,-356,-239,158,-180,119,-28,67,22.95,135231
-103,-36,-162,-638,33,207,-114,232,63,52,22.99,135318
-424,-81,400,47,485,158,-188,151,13,55,22.99,135405
-126,-24,-264,-251,-124,127,-167,200,44,54,22.99,135492
15,90,-234,-111,218,163,-170,265,69,53,22.99,135578
127,158,307,-33,-25,163,-160,282,66,53,22.95,135665
109,47,193,-15,121,199,-117,181,63,51,22.89,135752
-52,86,-417,20,61,217,-111,234,39,52,22.89,135838
13,-73,-512,-28,49,259,-158,198,83,53,22.99,135925
-141,6,-512,17,71,295,-188,235,67,52,22.95,136012
63,50,-362,-125,6,322,-129,177,63,53,22.87,136098
-99,-7,-499,-78,-17,330,-152,254,234,54,22.89,136185
1,66,-322,-18,-35,357,-162,289,98,54,22.89,136272
-75,-1,257,-171,-98,419,-46,164,124,53,22.93,136358
108,68,95,34,15,444,-141,278,166,57,23.03,136445
-204,86,-164,-73,34,461,-114,231,153,54,22.87,136532
93,20,10,-87,38,487,-113,234,115,56,23.09,136619
21,99,-512,-28,134,538,-27,201,125,54,23.03,136706
-94,-15,-109,-23,182,566,-109,263,119,50,23.03,136793
0,99,-325,-72,20,594,-42,213,114,54,23.21,136879
-9,-1,-269,-47,-76,595,-78,179,117,53,23.21,136966
-55,56,-405,-52,-30,632,-37,229,89,55,23.21,137053
-70,78,-512,-5,46,664,-50,217,138,54,23.17,137139
-5,65,-43,34,88,672,63,182,41,58,23.15,137226
-11,48,-512,-80,70,671,4,239,130,58,23.11,137312
24,123,-113,-69,-28,630,60,200,145,60,23.21,137399
100,45,-290,-85,-7,627,50,273,103,60,23.17,137486
-103,19,-512,-24,35,632,65,191,118,59,23.15,137572
52,125,-297,12,45,607,23,239,139,59,23.21,137659
32,29,-329,-63,25,586,89,270,114,60,23.21,137746
78,3,-247,-88,-30,517,91,222,118,58,23.23,137832
-62,126,-411,-8,54,483,159,248,130,58,23.33,137919
42,32,-462,-72,41,412,138,172,93,56,23.17,138006
11,112,-135,-21,30,316,119,214,121,53,23.17,138092
49,-20,-187,-89,24,268,53,250,102,60,23.33,138179
8,-36,-268,-126,49,210,156,221,115,62,23.23,138266
-48,37,-21,-118,34,148,115,214,103,58,23.21,138353
-17,50,-160,-71,78,125,135,224,73,57,23.21,138439
-36,53,-409,-50,86,59,111,206,82,61,23.23,138526
-76,20,-171,-84,74,18,83,269,46,57,23.21,138612
-87,11,-240,-119,60,32,54,233,154,57,23.17,138699
116,55,21,-83,80,45,81,194,118,57,23.33,138786
-109,-8,-444,-38,122,74,70,236,119,63,23.27,138872
180,55,-146,-83,206,86,109,226,84,70,23.35,138959
-3,86,-28,-2,420,114,105,214,75,77,23.27,139045
197,161,-455,9,590,95,66,376,-23,86,23.35,139132
-163,-39,66,1,638,70,123,249,-53,93,23.35,139219
-41,17,-41,9,510,31,89,262,-18,98,23.33,139305
-7,102,-505,-84,-109,-86,125,261,-35,87,23.33,139393
-35,106,-210,-159,-833,-225,99,277,17,67,23.29,139480
-76,-38,-187,72,-718,-220,105,354,52,47,23.39,139566
-204,38,-512,-13,118,-158,158,148,-9,55,23.39,139653
-77,-3,-399,-71,-20,-139,111,202,-11,52,23.41,139740
65,26,-72,-45,95,-124,114,270,67,54,23.33,139826
-7,6,-53,-85,79,-77,100,173,152,57,23.33,139913
-4,97,-249,-123,55,-21,80,238,100,51,23.41,139999
-98,-39,-11,-102,51,33,98,214,122,54,23.35,140086
28,-57,-221,-44,69,51,129,274,127,54,23.33,140173
44,118,-93,-92,27,34,122,204,79,55,23.35,140259
143,126,-425,-131,-57,50,101,232,121,59,23.29,140346
8,28,88,-73,-174,43,121,233,105,64,23.33,140433
63,8,-310,-71,-230,39,74,103,183,64,23.45,140519
-161,70,-512,-174,-244,67,77,214,162,71,23.45,140606
16,102,-512,-43,-62,96,125,106,178,71,23.47,140693
-219,11,-293,6,142,192,152,155,184,63,23.33,140780
45,54,-187,39,339,260,110,165,144,59,23.33,140866
-28,130,-512,-43,358,299,156,190,-4,53,23.39,140953
-12,13,-19,-116,204,310,76,136,117,56,23.35,141040
-31,-48,-274,40,41,283,115,116,95,52,23.57,141126
-13,-36,-54,114,-93,250,55,202,179,48,23.53,141213
-53,114,-128,191,-105,245,140,125,165,44,23.53,141300
58,49,-512,38,-117,234,78,170,176,47,23.47,141387
82,49,-141,-134,-30,257,71,152,203,50,23.47,141473
46,54,-291,-252,111,281,81,182,145,52,23.59,141560
-196,-53,-512,-257,224,300,147,198,107,58,23.65,141647
116,39,-170,-153,192,295,148,191,152,54,23.59,141734
-62,18,21,-71,118,302,123,209,86,53,23.65,141820
138,144,-5,41,91,312,143,125,107,52,23.47,141907
-54,69,9,82,-6,309,191,180,109,53,23.59,141995
-182,-39,175,125,-4,320,115,211,140,47,23.59,142081
176,81,-193,147,21,356,136,153,82,44,23.59,142168
-32,84,84,217,92,369,71,227,96,35,23.53,142255
-17,-41,-404,315,214,378,93,120,85,33,23.53,142341
15,67,-159,116,214,360,89,120,77,24,23.63,142428
-34,-32,-341,-181,-19,339,110,121,30,33,23.57,142515
48,-6,-73,-287,-87,297,55,188,83,39,23.51,142601
-116,52,-51,-475,-72,240,97,193,78,45,23.59,142688
-43,48,-355,-430,-8,214,211,194,73,54,23.59,142775
20,-12,-280,-258,108,228,156,165,40,53,23.51,142861
75,-23,-94,-37,202,205,197,99,42,48,23.27,142948
23,78,-127,69,189,192,212,116,61,47,23.33,143035
38,133,-275,81,125,141,166,148,67,44,23.39,143121
-25,-14,129,-20,-36,87,180,108,40,47,23.33,143208
54,-63,-72,-118,-142,73,129,201,41,49,23.23,143295
-25,50,-160,-27,-54,67,182,88,62,51,23.27,143381
-21,42,-58,-83,105,106,100,129,61,54,23.27,143468
-23,5,-431,-73,194,109,151,100,88,53,23.23,143554
-18,32,33,-4,119,87,128,159,15,58,23.23,143641
-72,-88,-76,-32,77,67,194,199,18,65,23.17,143728
0,-58,-437,-284,112,83,145,104,-19,81,23.27,143814
-92,21,-375,-289,579,99,107,250,-77,104,22.95,143901
190,89,-245,-47,742,76,210,202,-46,107,23.23,143988
-15,-6,-372,162,534,24,116,126,-58,88,23.15,144074
115,52,121,287,279,-10,128,144,-42,84,23.21,144161
-44,55,-198,-51,-105,-13,156,199,-93,88,23.21,144248
21,29,-275,-293,-598,-34,143,108,-10,99,23.05,144334
-60,40,-223,-355,-694,-98,154,179,32,134,23.03,144421
3,48,-153,-393,-485,-107,127,159,62,193,23.11,144508
-77,105,-512,-223,-6,-100,232,86,65,214,23.05,144595
-97,19,-248,122,548,-106,122,179,100,146,23.11,144683
-71,109,-188,404,731,-132,176,139,51,97,23.11,144769
57,127,-436,367,445,-171,136,109,80,79,23.21,144856
135,151,-314,8,-249,-203,124,189,31,79,23.21,144943
98,48,-243,-557,-938,-234,112,181,80,108,23.15,145030
-16,104,-143,-939,-1034,-234,172,103,49,0,23.27,145117
1,77,-512,-930,-596,-189,165,-15,231,1426,23.17,145203
27,82,-138,-370,52,-172,236,27,253,1818,23.11,145290
43,-70,123,390,497,-187,257,29,151,160,23.09,145377
35,73,-360,682,870,-192,189,91,199,56,23.21,145464
-8,14,-338,83,1090,-101,112,149,105,46,23.11,145550
3,109,-422,-224,472,-126,180,103,41,53,23.11,145637
44,105,-366,-199,-5,-147,170,138,79,50,23.23,145724
87,22,-130,45,-96,-157,86,139,64,51,23.11,145810
67,69,-52,106,90,-159,133,118,106,55,23.23,145897
-19,52,18,-20,125,-143,100,156,106,64,23.09,145984
118,148,-116,-47,217,-111,86,161,55,84,23.17,146071
26,95,-322,-114,280,-68,39,82,147,114,23.15,146157
-164,-30,-470,-223,297,-54,132,65,97,167,23.27,146244
10,72,-87,-147,168,-88,91,149,57,218,23.03,146331
-86,-20,-192,-41,71,-93,132,138,19,244,23.03,146417
-157,-3,-281,3,12,-83,64,114,92,262,23.05,146504
80,-18,-298,-20,-40,-85,95,142,96,271,23.05,146591
-38,120,-391,25,-3,-515,99,112,131,280,23.03,146677
-111,12,123,-6,-39,-132,48,111,132,304,23.03,146764
-74,87,-200,-159,-123,-130,80,155,199,365,23.09,146851
-64,50,301,-303,-286,-136,120,34,201,513,23.09,146937
-141,34,-103,-473,-355,-149,102,122,193,0,23.11,147024
120,31,-328,-528,-160,-124,189,12,186,0,23.11,147111
6,-59,-431,-383,275,-93,109,111,222,1653,23.11,147198
166,-2,189,-187,715,-62,215,177,110,1648,23.15,147286
106,29,-244,-100,725,-76,155,135,79,1646,23.21,147373
-15,43,-114,-18,455,-106,141,95,113,1638,23.21,147459
19,73,251,-49,70,-132,138,135,149,1622,23.23,147546
6,57,-428,-152,-157,-157,129,-191,180,1622,23.29,147633
-27,63,-512,-50,-79,-157,176,37,141,0,23.23,147720
-12,4,-468,109,148,-142,98,130,160,1336,23.23,147806
-129,36,-280,129,312,-137,152,85,80,1339,23.35,147893
112,-3,-16,-120,264,-133,133,194,141,1343,23.27,147980
107,83,-226,-235,78,-146,84,149,90,1344,23.23,148067
116,58,49,-185,-55,-159,118,152,153,1285,23.35,148154
34,21,-277,-141,-53,-162,109,126,175,1155,23.27,148241
-122,116,74,28,-97,-159,77,103,160,1305,23.33,148327
-36,65,-372,421,420,419,87,140,185,1343,23.33,148414
-202,-58,2,-105,-567,-150,62,76,190,1377,23.33,148500
-21,120,-282,-340,-428,-124,111,148,218,1369,23.33,148587
47,65,15,-350,-57,-72,65,130,313,1397,23.39,148674
-87,45,-351,96,574,-54,73,150,256,0,23.33,148761
-209,73,-465,403,-258,-258,127,39,202,481,23.35,148847
123,121,-185,252,1503,96,51,98,176,462,23.35,148934
-56,-81,-6,-399,1251,213,91,102,31,1327,23.29,149021
-109,-38,-266,-870,409,232,82,163,-86,1731,23.29,149108
-185,95,-287,-748,-289,178,159,52,26,1730,23.27,149195
-3,-31,42,229,-966,57,139,122,128,1435,23.27,149281
58,46,-512,895,-887,-28,98,84,124,84,23.41,149368
98,20,-512,1048,-279,-9,37,128,164,48,23.41,149455
-94,20,-512,-313,230,59,28,131,97,79,23.45,149541
-17,68,-512,-160,87,-3,58,170,135,77,23.41,149628
25,54,-109,191,-243,-89,32,173,150,57,23.45,149715
47,22,-512,-115,78,-67,29,162,175,57,23.45,149801
-39,131,-322,-36,83,-107,-5,142,190,58,23.33,149889
95,74,-288,15,98,-178,1,174,173,54,23.33,149976
7,92,-114,-53,107,-255,24,163,168,53,23.39,150062
-44,95,174,-92,100,-305,47,177,121,55,23.27,150149
-67,30,-237,-59,106,-355,50,127,195,50,23.41,150236
6,173,-403,126,1,-267,-8,390,16,39,23.33,150322
107,45,65,382,-66,-136,-42,110,174,38,23.33,150409
147,133,98,415,-111,7,-61,163,208,26,23.33,150496
-190,-19,-19,163,-67,143,-43,106,160,29,23.35,150582
45,-31,-41,-5,83,274,-101,342,61,37,23.33,150669
42,115,-266,-138,117,368,-42,74,162,41,23.33,150756
-203,-12,-487,-248,76,483,-58,108,213,45,23.39,150842
67,32,-259,-206,140,545,12,103,231,52,23.27,150929
24,32,-512,-264,208,541,-58,152,179,62,23.27,151016
108,42,-398,-298,357,477,-19,153,217,83,23.35,151103
-93,19,-446,-297,352,437,38,51,73,102,23.33,151189
-19,21,-283,-159,242,395,37,102,132,114,23.17,151276
6,50,-115,-63,83,366,-1,170,154,123,23.21,151363
17,49,-430,-127,-64,344,131,183,87,137,23.21,151450
85,76,-236,-9,-124,302,90,113,156,128,23.11,151536
-20,-37,-218,130,-360,242,58,115,177,112,23.21,151623
101,30,-445,7,-606,196,30,118,206,114,23.29,151710
-72,0,-236,-154,-710,168,134,127,207,126,23.17,151797
12,41,364,-115,-583,150,103,79,235,133,23.23,151883
-186,-20,9,52,-176,149,107,216,224,126,23.35,151970
-10,-7,150,203,302,166,63,89,260,103,23.27,152057
225,65,-177,331,648,181,140,89,198,82,23.27,152144
-12,30,206,88,653,195,73,247,151,70,23.33,152230
-90,-1,-30,-64,494,170,50,134,129,67,23.29,152317
94,201,-362,-288,218,142,92,131,117,70,23.35,152404
211,60,-122,-300,65,132,70,182,97,69,23.39,152491
-70,31,-512,-97,118,131,126,77,133,58,23.45,152578
-182,66,-357,27,204,116,148,42,93,47,23.35,152665
-102,-4,122,-29,282,135,114,144,107,55,23.33,152752
-204,-12,-418,-454,151,170,129,92,111,112,23.33,152838
-195,-70,-226,-799,4,187,112,103,34,1787,23.33,152925
-33,46,-175,-737,111,173,214,86,51,1794,23.29,153012
-99,7,-512,-506,229,160,216,-113,38,1770,23.33,153099
40,18,-91,-242,197,152,302,81,65,865,23.39,153185
-203,-29,-512,40,162,140,246,-3,123,1769,23.41,153272
-30,14,281,306,127,139,189,110,73,1432,23.33,153359
-151,-31,-228,226,86,191,266,46,34,1804,23.33,153446
40,36,60,208,107,214,228,83,90,1807,23.39,153533
-48,94,-307,142,332,241,160,137,5,0,23.39,153619
-166,92,-327,178,547,262,173,123,-2,483,23.33,153706
-54,-48,-37,49,550,275,184,228,-19,431,23.47,153793
0,52,-312,-69,374,273,134,123,-44,419,23.41,153879
-163,-71,196,-23,63,231,214,178,-109,301,23.35,153966
-217,-61,-296,103,-278,177,160,85,-93,226,23.39,154053
161,0,-484,129,-545,129,102,88,-39,162,23.41,154140
-104,67,-458,206,-475,108,125,272,-60,122,23.51,154227
-171,-15,323,250,-295,81,153,127,58,99,23.51,154313
52,-60,97,57,-60,78,86,184,55,94,23.41,154400
-40,39,84,-98,72,87,61,90,8,104,23.47,154486
-6,-66,-390,-415,100,116,80,228,42,136,23.33,154573
-67,61,-512,-481,160,151,109,-42,137,203,23.51,154660
161,156,-337,-379,240,170,191,72,49,303,23.45,154747
-109,-70,198,-332,251,193,171,88,31,422,23.39,154833
71,47,144,-186,209,218,207,298,-149,487,23.35,154920
-68,-81,-512,-72,-107,222,155,116,42,368,23.35,155008
9,49,-512,136,-362,211,225,161,-20,254,23.23,155095
120,99,-341,281,-488,191,173,214,34,185,23.39,155182
-14,67,-193,285,-594,183,146,181,76,146,23.33,155268
-112,-26,-425,154,-669,175,128,154,103,133,23.51,155355
-36,11,-512,17,-623,187,79,153,160,132,23.41,155442
164,100,-399,71,-271,215,91,18,219,129,23.41,155529
-124,47,-392,26,52,250,144,-14,106,130,23.29,155616
26,29,-505,-32,327,289,129,102,124,144,23.51,155702
-20,81,-326,-274,608,333,181,232,-64,194,23.51,155789
-22,-22,174,-553,842,385,193,75,62,408,23.39,155876
-45,-32,-472,-788,930,418,266,106,-55,0,23.63,155963
-8,29,-466,-839,770,415,258,143,-44,0,23.41,156049
-132,26,33,-679,465,379,311,135,-119,0,23.47,156136
59,114,-167,-420,124,354,285,157,-166,0,23.35,156223
-80,23,-421,-145,-173,347,312,111,-133,0,23.51,156310
111,-42,48,237,-242,304,261,111,-133,0,23.51,156396
-13,58,-512,499,-241,318,233,82,-91,0,23.51,156483
-126,-15,71,534,-231,297,265,223,-167,0,23.41,156570
-92,68,-512,278,-240,327,241,40,-132,450,23.57,156657
-198,-104,-417,-158,-270,370,186,117,-74,0,23.47,156743
108,-8,-64,-287,-133,403,144,167,-34,0,23.39,156830
-132,82,-512,-375,134,453,305,-28,-163,0,23.53,156917
-186,33,-480,-322,470,530,287,-39,-44,0,23.51,157003
-126,-91,-339,-342,483,575,293,0,-156,0,23.41,157090
92,-38,8,-186,296,603,231,-29,-170,2740,23.41,157177
-129,36,-12,-124,-50,583,274,35,-209,2727,23.41,157264
-4,55,-474,-80,-214,568,285,-150,-92,385,23.39,157351
13,59,-279,-80,-303,623,259,173,-332,0,23.57,157437
202,106,-348,-90,-257,640,245,-106,-197,416,23.45,157524
154,37,85,-134,-104,662,229,38,-302,0,23.45,157612
101,170,-366,-198,-67,680,251,20,-229,2236,23.53,157699
-54,-103,-432,-163,0,710,182,145,-217,0,23.47,157785
83,153,-512,-7,19,713,160,77,-229,1582,23.39,157872
200,135,-137,-2,82,726,168,177,-272,865,23.39,157959
26,6,-327,185,277,725,216,21,-261,0,23.69,158046
-11,53,-109,722,-3,680,94,171,-313,404,23.63,158132
207,117,150,1357,-870,563,22,207,-261,165,23.53,158219
-44,62,-510,1169,-1332,510,-113,203,-204,110,23.51,158306
-88,-64,111,204,-1079,547,-80,114,-122,108,23.39,158393
-12,2,-398,-945,-535,648,-77,313,-142,141,23.47,158480
-285,40,-360,-1454,-257,698,-1,301,-67,429,23.45,158567
-140,52,-117,-1032,-100,633,68,216,-134,174,23.45,158653
-37,218,-512,1970,2530,515,7,116,-227,37,23.41,158740
-367,74,-512,-849,1278,525,73,158,-306,680,23.39,158827
-57,2,-10,-536,-554,229,53,140,-392,311,23.45,158914
15,1,-512,974,-674,160,-52,284,-240,46,23.35,159001
-115,182,-512,-76,447,362,-4,171,-256,63,23.39,159087
127,41,-512,-173,-47,240,-12,163,-279,59,23.65,159174
181,106,-237,-73,58,135,7,220,-275,49,23.47,159261
37,58,7,-60,69,1,8,240,-268,51,23.47,159347
34,10,-145,-60,94,-124,20,178,-275,50,23.39,159434
71,52,-394,-82,114,-235,14,240,-282,49,23.41,159521
57,26,-124,-113,92,-288,21,258,-279,48,23.35,159607
48,33,-463,-108,89,-292,28,244,-276,43,23.29,159694
-20,14,-232,-101,86,-2,32,241,-278,51,23.41,159781
16,8,-153,-77,76,-48,31,253,-284,49,23.27,159867
-26,29,-296,-78,70,7,33,255,-288,50,23.45,159954
-4,32,-239,-63,67,64,31,260,-285,48,23.47,160040
8,33,-266,-77,71,7,31,255,-288,45,23.47,160128
-18,23,-257,-75,71,17,32,254,-287,47,23.41,160215
0,37,-282,-70,69,54,32,258,-284,47,23.41,160301
-2,40,-265,-74,71,13,34,259,-285,50,23.29,160388
-10,31,-266,-73,70,21,33,259,-287,45,23.47,160474
-5,33,-264,0,0,0,32,259,-287,47,23.41,160561
-9,31,-266,-75,70,19,35,254,-290,47,23.41,160647
-14,32,-266,-75,71,19,29,259,-292,47,23.41,160734
-10,28,-273,-72,69,42,32,256,-289,48,23.41,160820
-1,36,-257,-72,70,25,36,259,-288,49,23.45,160907
-3,33,-265,-73,70,20,32,258,-288,46,23.45,160994
-5,34,-265,-70,70,36,32,259,-289,47,23.51,161080
-2,38,-271,-72,70,28,34,255,-286,48,23.47,161167
-5,30,-264,-75,69,22,21,251,-284,46,23.45,161253
-8,29,-252,-74,69,32,32,256,-288,49,23.39,161340
-10,34,-275,-74,70,32,32,256,-287,48,23.65,161426
-6,29,-250,-73,71,21,32,256,-291,48,23.65,161513
-9,29,-267,-75,70,30,32,257,-289,47,23.53,161600
-7,32,-272,-74,69,33,29,262,-289,44,23.47,161686
-7,30,-279,-72,70,24,32,254,-286,49,23.59,161773
-5,31,-258,-72,71,28,32,256,-288,47,23.57,161859
-7,29,-264,-72,70,33,28,257,-289,51,23.47,161946
-5,31,-260,-74,70,25,31,255,-288,49,23.57,162032
-4,30,-265,-73,71,25,33,258,-290,46,23.63,162119
-9,30,-266,-73,70,33,36,259,-289,46,23.63,162205
-8,31,-262,-74,71,27,31,254,-286,47,23.59,162292
-6,31,-260,-73,70,26,30,259,-283,47,23.59,162379
-6,31,-261,-73,70,31,32,259,-290,49,23.47,162465
-6,32,-263,-73,69,29,33,256,-288,47,23.59,162552
-7,31,-263,-74,70,24,31,258,-288,46,23.59,162638
-6,32,-263,-74,71,29,36,255,-287,50,23.59,162725
-7,33,-259,-73,71,29,33,255,-287,46,23.57,162811
-6,31,-266,-74,72,29,35,257,-287,47,23.57,162898
-5,32,-259,-73,70,27,35,256,-288,47,23.53,162985
-7,33,-261,-73,70,27,36,261,-289,45,23.59,163072
-6,30,-262,-73,70,29,37,260,-287,47,23.71,163159
-7,33,-263,-73,70,28,34,255,-287,47,23.63,163245
-6,32,-263,-73,70,28,32,256,-287,47,23.79,163332
-7,32,-263,-73,69,29,32,256,-284,46,23.63,163418
-6,31,-263,-73,69,28,36,258,-287,49,23.75,163505
-25,48,-171,-37,102,-110,36,259,-286,51,23.79,163592
-92,59,-512,-89,147,-627,39,261,-296,51,23.79,163678
-53,32,-256,-102,173,-922,58,258,-277,50,23.75,163765
-114,29,-394,-106,191,-972,82,252,-279,46,23.79,163852
-148,43,-509,-155,189,-1250,92,256,-273,51,23.79,163939
-65,88,-512,-156,197,-1508,109,256,-263,49,23.69,164026
-82,45,-320,-128,241,-1624,146,252,-230,49,23.63,164113
6,50,48,-102,236,-1634,169,248,-208,47,23.75,164199
-20,60,-282,-115,245,-1369,171,261,-179,51,23.63,164286
12,61,-210,-167,166,-1136,177,263,-175,50,23.63,164373
