Acc X,Acc Y,Acc Z,Gyro X,Gyro Y,Gyro Z,Compass X,Compass Y,Compass Z,Lidar,Temperature,Time
-20,19,-263,-69,70,30,21,101,99,76,23.79,257
-17,24,-263,-68,71,18,22,106,101,76,23.79,344
5,36,-222,-73,74,34,19,102,101,74,23.69,430
0,34,-252,-71,73,20,23,105,101,72,23.79,517
-14,24,-268,-71,70,26,19,104,100,74,23.79,603
-1,35,-259,-71,73,28,21,105,99,74,23.69,689
-4,32,-262,-72,73,23,22,108,100,73,23.71,776
-7,32,-260,-72,74,19,17,107,100,73,23.63,862
-4,30,-264,-70,73,30,22,110,96,74,23.63,949
-2,32,-264,-71,72,27,18,106,101,74,23.63,1035
-5,32,-264,-71,73,20,19,107,101,72,23.59,1121
-6,33,-262,-71,73,27,21,102,101,74,23.59,1208
-2,33,-262,-70,72,28,23,104,97,73,23.69,1294
5,23,-264,-70,72,22,22,105,117,76,23.69,1381
2,46,-256,-72,73,24,7,111,108,74,23.75,1467
2,24,-264,-71,72,27,16,122,140,73,23.63,1554
1,23,-265,-71,72,25,13,143,116,73,23.59,1640
-10,31,-267,-71,73,23,28,118,105,73,23.59,1727
-3,31,-261,-70,74,30,1,126,106,72,23.59,1813
-1,34,-260,-71,74,23,20,103,98,70,23.71,1899
-4,32,-262,-71,73,23,20,105,99,71,23.81,1986
-4,31,-261,-72,73,24,23,105,100,75,23.59,2072
-3,31,-263,-71,73,28,21,106,100,75,23.65,2159
-2,32,-261,-71,73,25,23,108,99,72,23.69,2245
-3,32,-263,-71,73,23,21,107,101,73,23.63,2332
-3,31,-263,-71,73,27,22,107,102,74,23.63,2418
-2,33,-279,-72,74,27,21,107,102,73,23.53,2505
-4,32,-274,-70,71,24,22,114,104,75,23.69,2591
-2,32,-276,-72,73,25,19,110,98,71,23.63,2677
-3,32,-260,-72,73,27,19,107,98,72,23.63,2764
-5,33,-266,-69,72,24,21,107,100,74,23.59,2850
-4,31,-264,-71,73,24,20,107,97,72,23.65,2937
-4,32,-258,-71,71,27,33,118,99,71,23.59,3023
-1,52,-251,-69,74,24,26,99,98,73,23.59,3110
-17,28,-277,-73,72,22,22,100,113,73,23.59,3196
-4,19,-268,-71,72,31,26,102,92,73,23.63,3282
-17,38,-262,-71,72,23,32,88,93,72,23.59,3369
-6,29,-260,-71,73,24,21,101,93,73,23.65,3456
-8,29,-265,-70,71,28,2,243,94,74,23.65,3543
-15,45,-264,-71,73,24,25,101,113,72,23.69,3629
-9,44,-262,-72,73,25,24,100,101,73,23.75,3716
-3,32,-261,-72,73,24,21,101,99,73,23.75,3802
-5,33,-263,-72,73,27,22,104,97,71,23.63,3888
-2,31,-262,-71,72,28,20,107,101,73,23.57,3975
-5,33,-260,-72,71,22,23,107,96,72,23.75,4061
-5,31,-259,-71,72,25,17,105,98,75,23.69,4148
-3,33,-263,-71,72,28,21,105,99,72,23.79,4234
-3,32,-262,-71,74,24,21,106,99,74,23.79,4321
-4,32,-261,-72,72,23,20,105,97,74,23.63,4407
-4,32,-262,-71,72,27,22,107,99,73,23.63,4493
-4,33,-262,-71,73,26,20,110,98,73,23.63,4580
-4,32,-262,-71,72,23,20,106,99,72,23.59,4666
-8,43,-264,-71,72,26,21,106,95,73,23.63,4753
-1,23,-262,-71,71,25,20,126,98,71,23.57,4839
5,36,-256,-71,72,27,2,195,99,75,23.65,4925
-7,33,-267,-72,71,25,-16,220,97,72,23.63,5012
-19,3,-266,-71,71,25,23,102,97,74,23.59,5098
-5,33,-259,-70,71,28,21,102,98,72,23.59,5185
-3,32,-264,-71,73,22,23,104,100,74,23.57,5271
-3,32,-263,-71,73,25,21,104,100,74,23.65,5358
-2,32,-263,-70,73,29,20,103,99,74,23.71,5444
-2,32,-261,-71,73,24,22,99,99,74,23.69,5530
-5,32,-263,-71,73,22,22,102,97,72,23.65,5617
-5,33,-262,-71,72,28,22,104,98,71,23.59,5703
-3,31,-264,-71,73,26,24,103,98,74,23.69,5790
-4,32,-260,-71,73,22,22,103,98,74,23.69,5876
-4,32,-267,-70,72,26,21,104,99,71,23.69,5962
-3,30,-261,-71,72,27,22,106,97,73,23.63,6049
-5,33,-261,-72,72,23,24,107,101,75,23.59,6135
-6,32,-261,-71,72,24,20,104,99,72,23.59,6222
-4,34,-263,-71,72,27,21,106,101,71,23.69,6308
-3,33,-263,-71,72,25,19,108,102,74,23.65,6395
-4,32,-262,-70,72,24,20,106,99,72,23.71,6481
-6,35,-262,-70,73,27,21,108,96,74,23.71,6568
-3,32,-261,-70,73,26,17,107,99,73,23.59,6654
-4,32,-262,-71,72,23,17,106,100,73,23.63,6740
-3,32,-263,-71,72,25,18,104,99,73,23.63,6828
-5,32,-265,-70,72,26,18,104,99,75,23.69,6914
-4,32,-264,-71,72,24,16,102,101,74,23.65,7001
-5,31,-262,-71,72,24,18,103,99,71,23.65,7087
-3,32,-260,-71,72,26,23,103,99,73,23.57,7174
-5,32,-261,-70,72,25,20,106,95,73,23.57,7260
-5,31,-263,-71,71,24,21,103,97,74,23.63,7346
-4,33,-262,-71,72,25,21,101,97,71,23.57,7433
-6,32,-260,-71,72,25,22,104,98,73,23.59,7519
-5,32,-261,-71,73,25,22,100,100,75,23.53,7606
-4,33,-264,-71,72,25,22,103,97,73,23.65,7692
-3,30,-262,-71,73,26,24,101,102,75,23.57,7778
-4,33,-261,-71,73,25,24,103,102,72,23.59,7865
-4,31,-263,-71,72,25,22,105,99,72,23.59,7951
-3,32,-263,-71,73,25,22,105,104,74,23.53,8038
-5,32,-264,-71,71,25,19,105,98,72,23.53,8124
-3,32,-262,-71,72,24,20,104,100,71,23.69,8211
-4,33,-269,-72,72,26,23,105,100,73,23.53,8297
-4,34,-265,-71,72,26,20,105,100,72,23.59,8384
-4,30,-263,-72,73,25,19,107,100,71,23.57,8470
-4,32,-262,-70,72,25,20,106,100,72,23.57,8557
-3,31,-263,-71,71,26,19,108,98,73,23.57,8643
-3,31,-261,-70,71,25,21,103,98,73,23.63,8729
-4,32,-261,-71,72,25,18,104,98,73,23.51,8816
-4,33,-263,-71,72,25,22,105,101,74,23.53,8902
-4,32,-263,-70,72,25,20,103,101,74,23.57,8989
-4,33,-263,-71,72,25,21,102,99,73,23.63,9075
-5,33,-265,-71,71,25,23,106,99,74,23.53,9162
-4,32,-261,-71,71,25,19,104,98,72,23.57,9248
-5,32,-264,-71,72,25,21,101,100,72,23.57,9334
-4,32,-265,-71,72,25,21,103,100,73,23.59,9421
-3,33,-265,-71,72,25,23,101,97,74,23.59,9507
-3,32,-261,-70,72,25,21,101,101,72,23.57,9594
-2,29,-267,-70,73,25,21,103,99,73,23.53,9680
-4,32,-262,-69,74,25,24,103,100,73,23.57,9767
-3,34,-264,-69,71,25,20,102,100,73,23.59,9853
-3,32,-262,-70,72,25,23,105,99,73,23.53,9940
-3,32,-263,-71,72,25,23,105,100,74,23.53,10027
-4,33,-263,-71,72,25,19,104,101,73,23.69,10113
-3,31,-263,-71,72,25,21,106,100,72,23.59,10200
-5,32,-261,-70,73,25,21,107,100,71,23.57,10286
-4,32,-266,-71,71,24,24,105,100,72,23.59,10373
-2,31,-265,-70,71,25,20,109,99,71,23.59,10459
-3,31,-261,-71,72,25,19,107,101,72,23.65,10546
-3,32,-266,-71,73,25,18,106,100,72,23.53,10632
-5,32,-264,-71,72,25,18,108,100,74,23.53,10719
-3,32,-265,-71,71,25,21,106,98,74,23.51,10805
-4,32,-262,-71,72,26,18,104,99,72,23.57,10892
-4,32,-262,-70,71,25,20,102,99,75,23.59,10978
-3,32,-263,-71,72,25,22,104,99,71,23.47,11065
-4,32,-263,-71,72,25,22,103,98,72,23.65,11151
-4,31,-261,-71,72,25,22,101,101,71,23.63,11238
-4,32,-262,-71,72,25,20,104,101,72,23.53,11324
-4,33,-261,-71,72,26,22,104,101,72,23.53,11411
-3,33,-263,-71,72,26,24,99,100,72,23.57,11497
-4,32,-261,-71,72,26,22,101,102,72,23.45,11584
-4,32,-262,-71,72,25,21,101,96,73,23.57,11670
-4,33,-264,-71,72,25,24,103,100,71,23.63,11757
-4,33,-265,-71,72,25,22,105,101,72,23.59,11843
-3,33,-262,-71,72,25,24,104,101,71,23.57,11930
-4,32,-262,-70,72,25,20,105,98,72,23.65,12016
-3,34,-262,-71,71,25,20,104,99,71,23.65,12103
-4,33,-262,-71,72,25,22,107,98,72,23.57,12189
-3,32,-261,-71,72,25,21,107,98,73,23.57,12276
-4,32,-263,-71,72,25,19,105,100,73,23.57,12362
-4,33,-263,-71,71,25,19,106,99,73,23.53,12449
-4,34,-263,-71,72,25,20,105,101,69,23.47,12535
-4,32,-261,-71,71,25,20,106,101,72,23.57,12622
-4,32,-260,-70,72,25,19,102,99,72,23.59,12708
-5,32,-263,-69,72,25,17,104,98,72,23.59,12794
-4,32,-264,-70,72,25,19,105,99,71,23.59,12881
-4,32,-261,-71,72,25,23,103,98,74,23.39,12967
-5,32,-260,-71,72,25,18,100,101,73,23.59,13054
-4,32,-264,-71,71,25,23,105,96,70,23.59,13140
-4,31,-262,-71,72,26,20,105,99,72,23.65,13228
-4,32,-263,-71,72,26,23,104,101,74,23.59,13314
-5,33,-261,-71,72,25,24,104,101,73,23.63,13401
-2,32,-265,-71,72,25,21,102,99,73,23.63,13487
-4,32,-260,-70,72,25,22,103,99,72,23.53,13574
-5,33,-264,-70,72,25,24,103,98,71,23.59,13660
-4,34,-264,-71,71,25,23,104,102,71,23.57,13747
-4,32,-263,-71,72,25,25,103,100,72,23.57,13833
-3,32,-262,-71,71,25,20,105,101,71,23.59,13920
-3,33,-263,-71,71,25,21,103,101,72,23.51,14006
-4,32,-263,-69,72,25,21,105,101,73,23.53,14093
-3,32,-259,-72,72,25,19,106,100,71,23.53,14179
-4,32,-261,-70,72,25,23,106,98,72,23.57,14266
-3,32,-259,-70,72,25,18,107,98,72,23.53,14352
-5,32,-263,-71,72,25,17,105,99,71,23.59,14439
-4,32,-263,-70,72,25,19,107,98,73,23.53,14525
-3,32,-260,-70,72,25,20,109,96,72,23.57,14612
-2,32,-262,-71,72,25,19,105,100,72,23.57,14698
-3,32,-261,-71,71,26,20,104,98,73,23.45,14785
-4,31,-261,-71,72,25,22,103,98,73,23.45,14871
-5,34,-261,-70,71,25,18,103,100,73,23.53,14958
-5,33,-261,-70,72,25,21,104,102,70,23.65,15044
-3,33,-258,-71,72,25,20,103,102,73,23.65,15131
-5,32,-262,-71,72,24,20,100,98,71,23.51,15217
-4,33,-266,-71,73,25,21,103,98,71,23.63,15303
-4,32,-264,-70,72,25,23,101,96,72,23.57,15390
-3,32,-263,-70,72,25,23,101,97,71,23.57,15476
-5,31,-264,-71,72,25,22,103,98,72,23.57,15563
-3,33,-261,-71,72,25,23,102,98,72,23.51,15649
-4,32,-264,-71,72,25,23,105,98,72,23.63,15736
-4,32,-263,-71,72,25,20,104,101,73,23.59,15822
-3,32,-264,-70,71,25,24,104,101,73,23.59,15909
-4,32,-263,-71,71,25,22,105,100,71,23.57,15995
-3,32,-262,-71,72,25,19,105,100,73,23.51,16082
-4,31,-261,-71,71,25,19,106,99,71,23.63,16168
-3,34,-260,-71,71,25,20,106,100,72,23.63,16256
-3,32,-262,-70,72,25,19,105,102,74,23.51,16342
-4,32,-262,-71,72,25,20,106,102,75,23.53,16429
-3,31,-261,-71,71,26,19,106,100,71,23.53,16515
-5,32,-263,-71,72,24,19,106,100,74,23.59,16602
-5,33,-260,-71,72,25,18,107,99,71,23.63,16688
-5,32,-263,-71,71,25,20,106,101,72,23.63,16775
-5,33,-262,-71,72,25,20,103,100,73,23.41,16861
-3,32,-263,-71,72,25,20,101,98,72,23.41,16948
-3,32,-264,-71,71,24,21,106,99,72,23.65,17034
-3,32,-263,-71,72,25,23,103,101,72,23.47,17121
-4,33,-261,-71,71,25,22,103,101,73,23.53,17207
-3,32,-262,-71,72,26,22,104,100,71,23.63,17294
-4,32,-263,-71,72,25,22,101,100,73,23.51,17380
-3,32,-259,-71,71,26,25,100,99,72,23.47,17467
-4,31,-258,-71,72,25,22,103,98,72,23.45,17553
-4,33,-264,-71,72,25,21,104,99,73,23.45,17640
-3,32,-262,-71,72,25,24,105,97,71,23.53,17726
-3,32,-263,-71,72,24,22,104,99,70,23.53,17813
-3,32,-263,-71,72,25,20,105,101,72,23.47,17899
-4,31,-260,-70,71,25,20,106,100,73,23.51,17986
-4,33,-263,-69,71,25,20,106,99,72,23.53,18072
-3,31,-263,-71,72,25,18,108,99,73,23.53,18158
-4,33,-263,-71,71,25,21,109,103,70,23.45,18245
-4,32,-259,-70,72,25,19,106,102,70,23.45,18332
-3,32,-264,-71,72,25,16,106,99,71,23.51,18418
-5,33,-263,-71,71,25,20,106,100,72,23.57,18504
-2,31,-264,-70,71,25,20,109,100,72,23.59,18591
-3,32,-260,-70,71,25,22,103,102,71,23.47,18678
-2,32,-259,-70,72,25,22,104,100,73,23.63,18764
-2,31,-262,-71,71,25,21,102,98,73,23.47,18850
-3,32,-263,-71,71,25,19,103,98,71,23.59,18937
-4,32,-261,-71,71,25,21,103,102,73,23.59,19023
-3,32,-263,-71,71,25,23,104,99,73,23.47,19110
-4,32,-261,-71,72,25,24,102,99,73,23.65,19196
-4,31,-264,-70,72,25,22,103,100,73,23.57,19283
-4,33,-262,-72,71,25,24,104,101,71,23.53,19369
-4,33,-260,-71,71,25,22,102,100,72,23.53,19457
-4,32,-262,-70,72,25,24,103,96,72,23.57,19543
-3,34,-262,-71,72,25,22,105,100,71,23.59,19630
-4,31,-264,-71,72,25,20,105,99,73,23.59,19716
-4,32,-263,-71,72,25,23,106,102,73,23.59,19803
-4,32,-258,-71,71,25,21,103,101,72,23.45,19889
-4,33,-260,-70,71,25,18,105,100,72,23.59,19976
-3,31,-263,-71,72,25,23,107,100,72,23.59,20062
-4,32,-263,-71,72,25,19,106,101,73,23.59,20149
-5,32,-260,-71,71,25,20,107,99,71,23.53,20235
-4,34,-260,-71,71,25,19,108,102,72,23.59,20322
-5,32,-262,-71,71,25,18,106,101,71,23.59,20408
-4,32,-263,-72,72,25,22,106,100,72,23.57,20495
-4,32,-262,-71,73,25,17,104,103,71,23.53,20581
-5,31,-264,-71,72,25,19,106,101,71,23.57,20668
-4,32,-264,-71,71,25,20,100,99,72,23.59,20754
-4,33,-263,-70,71,25,22,102,102,70,23.57,20841
-5,33,-260,-72,72,25,22,101,101,72,23.53,20927
-3,33,-266,-71,72,25,22,102,100,72,23.65,21014
-5,34,-263,-71,72,25,20,102,101,69,23.65,21100
-5,32,-263,-71,71,25,25,100,97,73,23.57,21187
-4,33,-264,-71,71,25,24,100,99,71,23.51,21273
-3,33,-262,-71,71,25,19,103,100,71,23.51,21360
-2,32,-263,-71,71,25,22,103,99,72,23.63,21446
-4,31,-264,-70,72,25,23,102,99,72,23.63,21533
-4,32,-263,-71,72,25,23,104,100,72,23.51,21619
-4,32,-264,-71,73,24,23,104,101,71,23.51,21706
-3,32,-264,-71,72,25,20,105,100,70,23.51,21792
-4,31,-262,-70,72,25,23,109,102,72,23.59,21879
-4,33,-262,-71,72,25,21,106,100,73,23.57,21965
-4,33,-263,-71,72,25,19,105,100,72,23.59,22052
-4,31,-263,-71,72,25,20,109,99,71,23.57,22138
-4,31,-260,-70,72,25,20,107,100,71,23.65,22225
-5,32,-263,-72,72,25,22,107,102,74,23.59,22311
-3,30,-263,-71,72,25,21,108,102,71,23.53,22398
-4,31,-263,-71,71,25,20,104,101,71,23.53,22484
-5,31,-262,-70,72,25,21,104,102,69,23.51,22572
-4,31,-262,-71,72,25,16,102,101,72,23.51,22658
-3,33,-263,-70,72,25,17,101,100,72,23.53,22745
-5,32,-264,-71,72,25,20,101,103,73,23.53,22831
-4,32,-262,-71,72,25,21,100,99,74,23.59,22918
-3,33,-261,-71,72,25,20,102,100,69,23.47,23004
-5,31,-265,-70,72,25,23,102,100,71,23.65,23091
-3,32,-262,-71,72,25,23,102,99,72,23.51,23177
-4,32,-262,-71,72,26,18,101,97,72,23.51,23264
-3,33,-263,-71,72,25,21,103,100,71,23.45,23350
-4,32,-263,-71,71,26,21,103,103,71,23.53,23437
-4,31,-262,-71,72,25,23,104,101,73,23.63,23523
-4,32,-261,-71,72,25,21,104,98,73,23.59,23610
-3,32,-260,-70,71,25,19,104,101,72,23.47,23696
-3,31,-263,-71,72,25,21,105,98,72,23.53,23783
-4,32,-262,-71,71,25,19,103,101,72,23.59,23869
-4,31,-261,-74,72,25,20,105,100,74,23.59,23956
-5,32,-265,-71,73,25,22,106,100,71,23.59,24042
-3,32,-263,-70,71,25,22,105,100,74,23.41,24129
-4,33,-262,-71,71,25,16,106,100,72,23.51,24215
-3,32,-264,-70,71,25,18,106,98,73,23.47,24302
-3,32,-262,-70,71,26,16,107,104,71,23.57,24388
-4,32,-263,-72,70,25,19,105,100,71,23.53,24475
-3,33,-262,-71,72,25,19,106,99,72,23.45,24561
-4,31,-263,-71,72,24,18,107,98,73,23.45,24648
-4,31,-262,-71,72,25,21,105,101,72,23.47,24734
-4,33,-263,-71,72,25,20,101,97,72,23.59,24821
-3,32,-260,-71,72,25,21,103,101,73,23.51,24907
-3,32,-264,-71,72,25,18,102,98,73,23.35,24994
-4,32,-262,-71,71,25,21,102,100,73,23.63,25080
-4,32,-259,-71,72,25,24,103,98,72,23.63,25167
-5,33,-263,-71,71,25,23,101,101,70,23.51,25253
-4,31,-260,-72,72,25,22,104,101,71,23.51,25340
-4,32,-262,-71,72,24,21,103,97,73,23.45,25426
-3,32,-261,-71,72,25,21,105,98,72,23.53,25512
-3,32,-261,-71,71,25,24,104,98,74,23.53,25600
-4,32,-262,-71,71,25,18,107,99,73,23.57,25686
-4,32,-263,-70,72,25,22,104,97,72,23.47,25773
-4,32,-261,-71,72,25,22,105,98,72,23.57,25859
-4,32,-259,-71,71,25,17,107,100,74,23.63,25946
-3,33,-264,-71,71,25,20,106,98,72,23.63,26032
-3,32,-262,-71,72,25,20,105,98,72,23.53,26119
-5,33,-261,-71,73,25,20,107,100,73,23.47,26205
-3,32,-263,-71,72,25,18,106,101,71,23.63,26292
-3,32,-263,-71,71,25,19,107,96,73,23.45,26378
-4,31,-266,-70,72,25,18,106,101,71,23.63,26465
-4,34,-261,-71,71,25,18,104,98,73,23.41,26551
-5,34,-263,-70,71,24,18,106,97,74,23.69,26638
-5,33,-262,-70,71,25,22,101,97,73,23.69,26724
-4,31,-262,-71,71,25,19,103,97,75,23.47,26811
-5,33,-263,-70,71,25,20,103,101,73,23.59,26897
-4,33,-260,-70,71,25,23,101,99,71,23.45,26984
-3,32,-261,-71,72,25,23,98,99,70,23.53,27070
-4,33,-263,-71,72,25,23,99,99,73,23.53,27156
-4,31,-259,-71,72,25,23,101,99,70,23.51,27243
-5,32,-263,-71,71,24,22,104,98,71,23.51,27329
-5,30,-280,-71,74,24,23,102,99,73,23.51,27416
-2,33,-257,-70,71,25,24,105,104,71,23.53,27502
-4,33,-263,-72,71,25,25,104,100,72,23.51,27589
-3,33,-262,-72,73,25,21,108,101,73,23.59,27675
-5,32,-265,-70,72,25,22,107,97,73,23.59,27762
-5,32,-262,-70,72,25,17,106,99,71,23.57,27848
-4,32,-263,-71,72,25,21,106,98,71,23.59,27935
-4,32,-259,-71,72,25,22,106,98,71,23.41,28021
-4,32,-261,-71,71,25,18,106,99,74,23.41,28108
-3,32,-261,-70,71,25,16,109,99,72,23.53,28194
-4,32,-265,-71,71,25,20,106,101,71,23.51,28281
-3,33,-259,-71,72,25,16,106,100,71,23.57,28367
-3,32,-268,-73,73,25,22,103,98,73,23.51,28454
-4,31,-271,-71,72,24,21,105,102,75,23.53,28540
-4,32,-271,-71,71,24,22,105,104,73,23.47,28627
-5,32,-267,-70,72,25,20,105,98,73,23.51,28713
-5,32,-267,-71,71,25,21,102,99,72,23.51,28801
-3,32,-260,-71,72,25,20,101,100,72,23.45,28887
-6,32,-264,-71,72,25,20,101,101,70,23.45,28974
-5,32,-263,-71,71,25,22,102,101,72,23.41,29060
-4,32,-262,-72,71,25,22,101,100,72,23.53,29147
-5,33,-267,-70,71,25,23,100,99,72,23.47,29233
-4,33,-263,-71,73,25,21,102,99,71,23.59,29319
-3,32,-259,-71,72,25,21,104,100,71,23.63,29406
-4,33,-262,-72,71,25,25,102,99,72,23.63,29492
-5,32,-264,-71,72,25,20,104,101,70,23.59,29579
-5,32,-267,-71,72,26,23,103,102,70,23.53,29665
-4,31,-262,-70,72,24,23,103,100,73,23.53,29752
-4,32,-267,-71,71,25,21,107,101,70,23.59,29838
-4,33,-261,-70,72,25,23,107,100,72,23.45,29925
-4,33,-265,-70,72,25,20,105,98,72,23.45,30011
-5,32,-260,-71,72,25,18,105,101,69,23.51,30098
-3,31,-265,-70,72,24,18,105,102,70,23.51,30184
-3,32,-263,-70,71,25,19,106,99,72,23.45,30271
-3,33,-263,-71,72,25,19,103,102,68,23.57,30357
-3,33,-263,-71,72,24,18,102,101,70,23.47,30444
-5,33,-260,-71,72,25,20,103,101,72,23.57,30530
-5,33,-260,-70,72,25,23,101,100,72,23.47,30617
-3,32,-262,-71,73,24,19,104,101,72,23.63,30703
-4,32,-258,-72,72,25,21,103,102,70,23.53,30790
-4,33,-260,-71,72,25,24,103,98,71,23.53,30876
-4,32,-260,-71,72,25,23,100,104,69,23.47,30963
-4,32,-260,-71,72,25,26,102,102,72,23.59,31049
-5,33,-263,-71,72,25,21,101,97,72,23.51,31136
-4,31,-263,-71,72,24,20,103,99,72,23.53,31222
-3,33,-260,-71,72,24,25,104,99,73,23.51,31309
-4,33,-259,-71,72,25,25,104,100,72,23.47,31395
-3,33,-261,-70,71,25,25,105,100,71,23.59,31482
-4,32,-262,-71,72,25,23,106,101,70,23.59,31568
-4,32,-264,-71,72,25,21,108,98,70,23.59,31655
-5,31,-263,-71,72,24,18,105,100,71,23.47,31741
-4,32,-265,-70,72,25,19,106,101,72,23.51,31828
-3,34,-262,-70,71,25,20,106,100,72,23.69,31915
-4,31,-264,-71,72,25,20,106,97,72,23.57,32002
-4,31,-263,-72,71,25,21,107,103,70,23.47,32088
-4,31,-263,-70,72,26,20,107,100,72,23.59,32175
-3,32,-269,-71,72,26,18,108,98,73,23.59,32261
-3,32,-267,-71,72,25,18,106,103,74,23.59,32348
-3,31,-265,-71,72,25,17,108,103,72,23.59,32434
-4,31,-260,-72,72,25,19,102,101,73,23.53,32521
-4,36,-245,-68,72,25,22,104,104,71,23.51,32607
-5,31,-274,-70,72,24,20,104,101,70,23.69,32694
-4,32,-268,-73,73,27,21,102,100,72,23.59,32780
-3,33,-259,-70,73,24,22,102,101,70,23.59,32867
-4,32,-254,-69,72,24,24,104,97,72,23.59,32953
-4,33,-266,-71,70,25,23,102,97,71,23.39,33040
-3,33,-265,-70,73,26,24,101,103,73,23.47,33126
-3,33,-260,-70,72,25,24,102,101,72,23.47,33213
-4,32,-263,-71,71,25,22,103,100,71,23.47,33299
-2,31,-266,-72,73,22,20,104,99,72,23.39,33386
-6,32,-263,-71,73,26,22,105,99,72,23.51,33472
-3,32,-261,-71,72,27,21,108,98,71,23.45,33559
-5,32,-269,-71,71,25,22,106,102,72,23.45,33645
-4,34,-260,-72,73,24,21,103,100,72,23.45,33732
-4,33,-262,-70,72,26,22,104,101,73,23.47,33818
-4,31,-263,-72,74,26,21,105,101,71,23.35,33905
-5,31,-265,-71,71,24,18,109,99,73,23.47,33991
-5,33,-261,-71,72,24,21,105,99,72,23.45,34078
-3,33,-262,-71,72,26,21,104,101,72,23.47,34164
-4,31,-261,-71,71,25,22,106,103,74,23.51,34251
-5,32,-263,-72,71,24,21,106,102,72,23.51,34337
-4,33,-263,-70,71,25,24,105,100,72,23.41,34424
-4,33,-263,-70,72,25,21,103,96,74,23.51,34510
-3,32,-265,-71,73,24,21,102,101,72,23.45,34597
-5,32,-262,-71,72,24,19,105,99,72,23.59,34683
-4,33,-262,-71,72,25,20,105,99,72,23.57,34770
-4,32,-264,-71,72,25,22,103,97,72,23.59,34856
-4,32,-262,-71,72,25,22,101,99,72,23.45,34944
-4,31,-263,-72,72,25,23,101,99,72,23.45,35030
-4,33,-262,-71,72,25,24,105,99,72,23.47,35116
-4,33,-264,-71,71,25,23,101,100,71,23.63,35203
-2,34,-233,-76,74,25,24,102,102,72,23.63,35290
-5,29,-282,-71,74,26,20,102,101,72,23.45,35376
-3,32,-257,-70,72,25,20,106,100,73,23.51,35463
-5,31,-266,-71,71,25,22,107,100,72,23.63,35549
-5,33,-264,-71,72,25,20,108,101,71,23.51,35636
-4,32,-262,-71,71,25,19,103,100,73,23.51,35722
-3,32,-264,-71,72,25,20,104,101,73,23.51,35809
-5,32,-263,-71,72,24,21,105,102,71,23.59,35895
-4,32,-263,-71,72,25,21,107,103,72,23.53,35982
-3,32,-264,-71,71,25,18,107,103,72,23.53,36068
-4,33,-263,-71,72,25,20,106,101,72,23.47,36155
-5,32,-265,-71,71,25,18,108,101,71,23.59,36241
-5,32,-262,-71,72,25,21,106,101,72,23.69,36328
-5,32,-267,-71,71,25,23,104,98,74,23.69,36414
-4,32,-262,-71,72,25,21,103,101,72,23.53,36501
-5,33,-262,-70,72,25,21,102,100,70,23.45,36587
-4,33,-261,-71,72,25,22,102,103,72,23.47,36674
-4,31,-263,-71,71,25,23,103,99,72,23.51,36760
-3,31,-263,-71,72,25,20,102,100,72,23.51,36847
-2,31,-261,-70,70,26,20,104,98,72,23.59,36933
-4,32,-266,-71,72,24,22,103,101,72,23.53,37020
-4,32,-261,-70,71,25,21,101,105,71,23.53,37106
-3,31,-266,-71,72,25,23,102,100,70,23.63,37193
-5,33,-265,-71,72,25,23,102,100,70,23.45,37279
-6,32,-263,-71,71,25,22,105,99,70,23.57,37365
-3,33,-249,-71,74,25,23,107,100,72,23.59,37452
-5,34,-271,-71,71,25,20,106,102,71,23.63,37539
-3,31,-267,-69,71,25,24,106,98,71,23.57,37625
-5,32,-275,-73,70,25,22,106,98,71,23.53,37711
-4,31,-266,-71,71,25,16,102,104,70,23.53,37798
-4,32,-261,-69,72,25,22,107,101,71,23.53,37884
-3,33,-259,-71,70,25,19,105,98,71,23.57,37971
-6,32,-270,-72,71,25,18,104,101,74,23.45,38057
-6,31,-265,-72,71,25,19,104,100,71,23.63,38145
-5,33,-268,-71,71,25,19,106,98,71,23.59,38231
-3,33,-258,-70,71,25,18,103,100,71,23.59,38318
-3,33,-264,-70,73,24,22,104,98,71,23.59,38404
-4,33,-266,-71,72,25,20,103,100,73,23.59,38491
-4,32,-262,-71,72,25,20,105,99,72,23.57,38577
-3,34,-262,-72,72,25,22,102,101,70,23.59,38664
-3,32,-264,-72,72,25,21,101,100,72,23.63,38750
-4,32,-262,-71,72,25,22,100,97,73,23.63,38837
-5,33,-261,-71,72,25,23,101,97,72,23.47,38923
-4,32,-260,-70,73,25,23,97,99,73,23.51,39010
-4,33,-262,-71,72,25,21,102,103,71,23.65,39096
-5,32,-262,-71,72,25,22,104,100,71,23.65,39183
-4,32,-262,-71,72,25,21,105,102,73,23.63,39269
-5,33,-263,-71,72,25,24,105,102,69,23.63,39356
-6,33,-264,-71,72,25,23,107,101,70,23.63,39442
-5,33,-262,-70,72,25,22,105,102,69,23.63,39529
-5,32,-266,-71,71,25,19,107,99,69,23.63,39615
-2,32,-262,-71,71,25,22,105,100,70,23.63,39702
-5,33,-260,-71,72,25,19,107,103,71,23.65,39788
-4,32,-260,-71,72,25,20,108,99,71,23.65,39875
-4,32,-261,-71,71,25,21,106,102,72,23.63,39961
-4,32,-265,-71,71,25,19,105,101,72,23.63,40048
-3,32,-262,-71,71,25,19,103,100,71,23.69,40134
-4,31,-261,-71,72,25,21,105,97,72,23.63,40221
-4,32,-268,-71,72,25,21,103,101,72,23.59,40307
-5,33,-263,-72,72,25,21,102,104,73,23.53,40394
-5,31,-260,-71,72,25,18,102,100,71,23.53,40480
-3,33,-259,-71,71,24,23,103,98,72,23.59,40567
-4,32,-266,-71,71,25,21,103,100,72,23.59,40653
-5,32,-265,-71,71,25,21,102,98,73,23.53,40740
-3,32,-242,-70,73,25,22,99,102,74,23.53,40826
-4,32,-258,-71,71,25,21,103,99,71,23.63,40913
-5,31,-264,-70,72,25,24,103,101,72,23.53,40999
-2,31,-260,-71,73,24,25,105,98,72,23.57,41086
-3,32,-265,-70,72,24,22,108,99,71,23.59,41172
-3,32,-260,-71,72,25,22,104,98,72,23.75,41260
-4,31,-265,-72,72,25,21,105,98,73,23.75,41346
-3,32,-258,-71,72,25,23,107,101,72,23.47,41433
-4,32,-263,-71,71,26,20,106,101,71,23.53,41519
-3,33,-258,-73,74,26,20,107,102,71,23.63,41606
-4,31,-264,-72,73,24,23,108,101,70,23.69,41692
-6,33,-264,-71,71,24,21,106,100,73,23.57,41779
-4,33,-264,-71,71,25,22,109,103,71,23.63,41865
-4,32,-259,-71,71,25,18,105,101,72,23.53,41952
-4,31,-262,-71,72,25,19,105,100,72,23.53,42038
-4,31,-265,-72,72,25,21,106,99,72,23.63,42125
-5,33,-261,-70,72,25,17,103,102,72,23.65,42211
-3,32,-262,-71,72,25,23,104,104,70,23.65,42298
-4,31,-263,-71,72,25,20,103,101,69,23.59,42384
-3,31,-265,-71,72,25,22,102,102,73,23.71,42471
-4,33,-262,-71,72,25,22,103,99,73,23.69,42557
-4,33,-263,-70,71,25,22,101,99,72,23.57,42643
-4,32,-258,-71,72,25,24,102,103,73,23.57,42730
-4,33,-263,-71,72,25,22,101,99,71,23.63,42816
-3,32,-262,-70,72,25,22,99,99,70,23.65,42903
-4,32,-263,-71,72,26,27,101,101,71,23.63,42989
-5,31,-261,-72,72,25,26,104,101,72,23.57,43076
-3,33,-258,-70,72,25,23,102,100,70,23.65,43162
-5,32,-262,-71,72,25,20,106,101,70,23.71,43249
-4,31,-266,-71,72,25,20,106,99,71,23.59,43335
-3,31,-262,-71,72,25,21,103,104,72,23.59,43422
-4,33,-262,-71,72,25,20,104,100,73,23.59,43508
-5,32,-263,-70,72,25,20,107,99,70,23.57,43595
-4,31,-263,-71,72,25,19,105,98,72,23.59,43681
-4,33,-264,-71,71,25,18,106,100,72,23.69,43768
-6,32,-264,-71,72,25,19,106,101,71,23.63,43854
-3,32,-261,-71,71,25,21,104,101,71,23.71,43941
-4,33,-261,-71,72,25,18,104,102,71,23.69,44027
-4,32,-260,-71,72,25,16,102,102,70,23.69,44114
-3,32,-263,-71,72,25,20,105,98,71,23.59,44200
-5,31,-262,-71,72,25,23,103,101,72,23.63,44288
-5,32,-263,-71,72,25,21,103,97,71,23.59,44374
-4,32,-261,-71,71,25,23,104,100,71,23.57,44461
-2,31,-262,-71,72,25,21,100,98,73,23.63,44547
-3,32,-262,-71,72,25,22,99,101,71,23.69,44634
-6,33,-263,-71,72,25,20,101,99,71,23.75,44720
-3,31,-262,-71,73,25,21,102,99,71,23.75,44807
-4,33,-259,-70,73,24,24,101,102,72,23.69,44893
-5,33,-263,-71,72,25,21,103,101,72,23.59,44980
-4,32,-263,-71,71,24,22,104,101,72,23.63,45066
-3,32,-262,-71,72,25,21,105,102,70,23.63,45153
-4,32,-262,-71,72,25,20,107,99,71,23.65,45239
-5,32,-263,-71,72,25,20,105,100,72,23.79,45326
-5,31,-262,-71,72,25,18,107,102,70,23.59,45412
-3,32,-263,-70,72,25,21,107,102,72,23.59,45499
-4,32,-263,-71,71,25,17,105,100,72,23.63,45585
-4,32,-264,-70,73,24,18,105,101,73,23.63,45672
-3,26,-275,-90,71,26,21,109,100,71,23.57,45758
-3,26,-277,-74,75,25,21,105,99,73,23.59,45845
-4,35,-259,-72,72,25,21,104,102,71,23.69,45931
-3,32,-264,-69,71,25,20,102,101,71,23.59,46018
-5,31,-263,-72,73,25,19,103,98,70,23.69,46104
-5,31,-287,-75,71,25,19,106,99,73,23.69,46191
-5,33,-274,-70,71,25,22,101,100,72,23.63,46277
-3,31,-251,-76,74,25,19,101,102,73,23.65,46364
-3,29,-257,-70,74,25,23,101,98,73,23.71,46450
-3,31,-256,-73,72,25,23,101,100,70,23.69,46537
-4,34,-262,-72,71,25,26,103,100,72,23.75,46623
-6,33,-266,-70,71,25,20,102,103,71,23.57,46710
-5,32,-262,-71,72,24,22,102,99,69,23.71,46796
-3,32,-266,-71,71,25,26,103,101,73,23.71,46883
-3,34,-262,-71,72,25,22,104,101,71,23.57,46969
-3,32,-259,-71,72,25,21,105,101,73,23.65,47056
-4,31,-258,-72,73,25,22,104,103,74,23.59,47142
-5,30,-263,-72,74,25,23,106,97,72,23.63,47229
-5,31,-269,-70,72,25,22,104,102,71,23.63,47315
-4,33,-255,-71,72,25,20,106,101,72,23.69,47403
-3,32,-261,-70,72,24,20,105,100,73,23.65,47489
-3,33,-259,-70,71,24,19,104,101,71,23.65,47576
-4,31,-265,-71,71,24,18,104,104,71,23.75,47662
-4,32,-264,-71,71,25,19,105,103,75,23.65,47749
-4,33,-263,-71,71,24,19,107,102,72,23.57,47835
-3,31,-261,-71,71,24,18,106,102,71,23.75,47922
-4,32,-261,-72,72,24,23,106,101,71,23.79,48008
-4,33,-263,-70,71,24,19,105,102,72,23.79,48095
-5,33,-262,-71,71,25,19,102,100,71,23.79,48181
-5,33,-262,-71,71,25,22,102,101,71,23.79,48268
-6,33,-263,-70,72,24,18,100,102,72,23.71,48354
-4,34,-261,-70,70,25,20,105,103,71,23.71,48441
-3,32,-263,-71,72,24,20,100,97,72,23.57,48527
-4,32,-260,-71,72,25,21,102,100,72,23.63,48614
-4,32,-263,-71,72,25,23,100,101,70,23.71,48700
-5,32,-263,-71,71,24,22,102,101,72,23.71,48787
-4,33,-261,-71,72,25,21,101,100,73,23.69,48873
-5,32,-261,-71,72,24,26,106,97,72,23.69,48960
-5,33,-261,-71,72,25,22,106,101,72,23.59,49046
-3,33,-262,-71,72,25,23,107,100,73,23.65,49133
-4,31,-263,-70,71,24,21,106,101,71,23.65,49219
-4,32,-264,-71,71,25,20,104,102,72,23.59,49306
-5,33,-264,-71,71,24,20,106,104,72,23.53,49392
-5,32,-264,-71,72,25,19,107,100,70,23.63,49479
-3,32,-262,-70,72,25,17,103,99,73,23.57,49565
-4,33,-264,-71,71,25,20,106,101,71,23.57,49652
-5,32,-262,-70,72,25,21,107,102,71,23.57,49738
-4,33,-262,-71,72,25,19,104,101,73,23.75,49825
4,26,-319,-41,82,24,20,102,102,70,23.57,49911
-2,33,-222,-78,81,24,20,102,100,70,23.69,49998
-2,29,-166,-66,79,24,25,101,100,73,23.71,50084
-10,39,-203,-55,74,24,16,103,99,71,23.75,50171
-24,35,-512,-70,70,26,24,102,100,71,23.59,50257
1,30,-179,-80,71,26,21,101,100,72,23.59,50344
-8,33,-290,-71,72,25,21,102,99,72,23.47,50430
-5,32,-248,-74,73,25,22,102,103,71,23.59,50518
-3,30,-272,-70,70,25,24,102,101,73,23.53,50604
-3,34,-239,-66,72,24,21,101,100,70,23.57,50691
-4,29,-272,-71,69,25,21,107,98,70,23.75,50777
-4,32,-277,-67,71,25,22,104,100,71,23.65,50864
-5,34,-243,-73,71,25,20,107,101,73,23.53,50950
-5,27,-288,-71,72,25,23,104,101,71,23.53,51037
-4,32,-226,-73,69,25,20,106,102,71,23.65,51123
-5,34,-243,-75,70,25,21,106,99,73,23.59,51210
-6,30,-300,-69,74,25,20,104,102,73,23.59,51296
-8,34,-313,-70,68,25,19,106,100,72,23.65,51383
-1,31,-201,-76,71,25,19,106,101,71,23.69,51469
-1,30,-222,-71,72,25,19,107,100,70,23.63,51556
-4,33,-266,-70,71,25,21,106,102,72,23.65,51642
-6,33,-265,-71,72,25,18,107,101,71,23.57,51729
-6,33,-263,-70,72,25,17,105,102,71,23.57,51815
-5,33,-264,-71,72,25,21,104,100,69,23.63,51902
-5,31,-264,-72,71,25,21,102,100,69,23.57,51988
-4,32,-261,-71,72,25,22,104,101,71,23.59,52075
-4,32,-263,-71,71,25,19,100,101,72,23.59,52161
-4,35,-262,-71,71,25,19,103,103,72,23.69,52248
-6,32,-262,-72,72,25,23,102,99,69,23.63,52334
-5,33,-263,-71,71,25,23,100,101,72,23.57,52421
-4,31,-263,-71,72,25,19,103,100,71,23.57,52507
-4,33,-263,-71,72,25,21,101,101,73,23.47,52594
-5,32,-261,-70,72,25,23,101,99,72,23.59,52680
-4,31,-263,-71,72,25,23,104,103,73,23.57,52767
-5,33,-264,-71,72,25,24,102,101,71,23.63,52853
-5,33,-264,-70,72,25,24,106,102,72,23.57,52940
-4,32,-263,-70,71,24,21,104,100,71,23.65,53026
-5,33,-261,-71,71,25,19,106,97,73,23.59,53113
-4,32,-261,-71,72,25,21,107,101,70,23.59,53199
-4,32,-262,-71,71,25,22,104,104,71,23.51,53286
-4,31,-265,-71,72,25,18,107,105,73,23.59,53372
-5,33,-262,-70,72,25,20,106,100,71,23.47,53459
-6,33,-264,-70,71,25,19,106,100,71,23.65,53545
-5,32,-264,-71,72,24,16,107,100,72,23.65,53633
-4,32,-262,-71,72,24,19,105,100,69,23.57,53719
-6,31,-263,-71,72,25,20,102,100,73,23.53,53806
-5,32,-263,-71,71,25,21,102,100,72,23.53,53892
-3,32,-262,-71,72,25,22,102,102,69,23.47,53979
-3,31,-262,-71,72,25,23,101,101,71,23.45,54065
-5,33,-265,-71,71,25,20,103,100,71,23.57,54152
-6,33,-261,-71,71,25,21,102,99,70,23.53,54238
-5,33,-262,-71,72,26,20,106,101,70,23.51,54325
-5,33,-266,-71,71,25,24,101,102,71,23.57,54411
-5,32,-262,-71,72,25,21,104,100,73,23.69,54498
-4,32,-265,-71,72,25,23,100,100,71,23.69,54584
-4,32,-263,-70,71,25,22,102,99,70,23.53,54671
-5,32,-263,-71,72,25,23,102,101,71,23.57,54757
-5,33,-262,-71,72,25,23,105,103,70,23.65,54844
-5,32,-263,-71,72,25,22,105,101,72,23.59,54930
-4,32,-263,-70,72,25,21,105,98,72,23.65,55017
-4,32,-263,-71,72,25,18,104,98,72,23.69,55103
-3,31,-264,-71,72,25,23,103,101,70,23.69,55190
-5,31,-261,-71,71,25,19,104,102,72,23.69,55276
-4,32,-262,-71,72,25,22,104,101,71,23.71,55363
-4,32,-263,-70,71,25,21,105,103,71,23.63,55449
-5,33,-263,-71,72,26,21,106,104,72,23.63,55536
-5,32,-263,-71,72,25,18,104,102,70,23.65,55622
-5,32,-265,-70,71,25,21,105,97,72,23.65,55709
-4,32,-262,-70,71,25,19,104,102,71,23.65,55795
-4,32,-263,-71,71,25,18,100,100,71,23.79,55882
-4,32,-260,-71,71,25,23,102,103,71,23.79,55968
-6,32,-262,-71,71,25,20,100,100,70,23.63,56055
-4,32,-262,-71,72,25,23,104,100,68,23.63,56141
-6,31,-282,-72,71,25,22,102,99,72,23.65,56228
-5,32,-259,-70,71,25,20,101,103,72,23.69,56314
-6,32,-264,-71,71,25,22,100,98,70,23.63,56401
-4,31,-261,-71,71,24,24,101,100,72,23.69,56487
-3,32,-266,-72,72,25,20,102,101,71,23.53,56574
-4,32,-262,-71,71,25,23,105,98,69,23.53,56660
-5,31,-260,-71,72,25,23,104,101,70,23.57,56748
-4,32,-262,-70,72,25,24,104,100,71,23.65,56834
-3,32,-263,-71,72,25,22,106,101,72,23.65,56921
-4,32,-263,-71,72,25,22,107,100,71,23.57,57007
-4,31,-261,-71,72,25,23,107,102,71,23.69,57094
-5,32,-262,-71,72,25,22,107,100,68,23.65,57180
-4,32,-262,-71,71,25,19,107,98,69,23.63,57267
-4,32,-263,-70,72,25,17,108,100,72,23.63,57353
-4,32,-261,-71,72,25,17,106,102,70,23.63,57440
-4,32,-262,-70,71,25,18,110,101,71,23.65,57526
-4,32,-262,-71,72,24,20,104,99,72,23.79,57613
-6,33,-262,-70,71,25,21,105,103,72,23.71,57699
-3,31,-259,-70,71,25,19,103,101,71,23.63,57786
-4,32,-263,-70,71,25,21,101,101,72,23.65,57872
-4,32,-263,-71,71,25,22,103,99,69,23.69,57959
-4,31,-262,-70,71,25,23,101,101,69,23.69,58045
-4,32,-262,-71,72,25,22,106,102,69,23.71,58132
-4,31,-262,-71,71,25,22,101,102,72,23.65,58218
-3,32,-263,-71,71,25,23,102,99,70,23.57,58305
-3,32,-264,-70,71,25,23,101,100,69,23.65,58391
-3,32,-260,-71,72,26,22,104,99,72,23.65,58478
-4,32,-263,-71,72,25,21,103,101,70,23.59,58564
-4,32,-264,-71,71,26,20,106,99,71,23.71,58650
-4,31,-262,-71,71,25,21,103,101,70,23.71,58737
-5,32,-263,-71,72,25,19,106,101,71,23.65,58824
-6,32,-262,-71,71,25,19,107,99,74,23.57,58910
-3,32,-266,-71,73,25,19,104,100,71,23.75,58996
-6,33,-261,-71,72,25,22,107,97,72,23.69,59083
-4,33,-260,-70,73,25,20,106,99,71,23.53,59169
-6,31,-266,-70,71,25,18,105,99,72,23.71,59256
-5,33,-265,-70,71,25,21,108,102,71,23.59,59342
-6,33,-263,-71,71,25,20,107,102,73,23.59,59429
-5,32,-261,-71,72,25,20,103,100,72,23.65,59515
-5,31,-262,-71,71,26,17,103,102,72,23.59,59602
-4,31,-262,-71,71,25,21,103,99,71,23.65,59688
-5,34,-260,-71,71,25,18,103,99,70,23.59,59776
-4,31,-263,-70,71,25,25,101,103,72,23.63,59862
-4,32,-262,-71,71,25,22,102,100,72,23.65,59949
-6,34,-263,-72,72,21,-33,249,309,71,23.69,60035
-20,21,-264,-70,72,25,107,89,239,73,23.69,60122
-5,31,-251,-73,71,29,138,-240,119,71,23.63,60208
-12,34,-250,-72,66,38,4,327,135,70,23.53,60295
-10,33,-252,-70,74,19,-38,202,76,71,23.59,60382
-4,38,-260,-67,67,22,13,115,97,73,23.59,60468
-31,43,-266,-73,73,36,-2,123,48,71,23.53,60554
-32,19,-200,-92,89,19,-13,49,131,73,23.57,60641
22,4,-512,-51,68,26,-18,52,108,72,23.57,60727
29,16,-280,-118,79,-4,14,39,100,76,23.59,60814
-47,39,-512,-46,60,-20,-19,62,106,73,23.59,60901
81,73,-11,-103,79,-29,-9,54,126,73,23.57,60987
-139,54,-444,-91,89,-10,25,54,121,73,23.65,61074
34,12,-18,-6,56,48,-31,-86,220,74,23.51,61160
-36,61,-233,-84,61,64,0,60,135,72,23.57,61246
49,45,-467,-63,63,60,-3,-152,217,71,23.53,61333
82,51,-118,-145,82,88,-47,143,95,75,23.51,61420
24,-3,134,-103,50,101,-7,-115,179,72,23.51,61506
57,10,-487,-101,27,127,-38,27,191,74,23.51,61593
-28,98,-512,-2,59,111,20,81,82,76,23.41,61679
-53,8,-420,-6,114,125,11,-25,121,80,23.51,61766
5,58,-512,-5,201,154,18,-52,84,82,23.47,61852
-29,23,-512,-18,317,171,-14,-261,157,86,23.51,61939
37,20,-119,-119,328,203,-11,217,50,95,23.35,62025
141,67,-179,12,303,200,-28,210,93,97,23.45,62112
62,56,-512,-110,225,204,-16,60,24,96,23.53,62199
63,10,-138,-27,29,183,69,51,-15,95,23.53,62285
-95,17,-512,-100,-281,139,67,55,42,88,23.41,62372
-60,-20,-244,-192,-636,92,-5,69,139,51,23.33,62458
99,15,-264,-298,30,128,62,72,33,79,23.41,62545
-15,-45,-512,-23,25,96,52,73,97,71,23.39,62631
16,24,-157,-186,114,112,53,54,97,73,23.35,62718
5,-27,-30,-33,13,81,58,-153,98,67,23.47,62804
-94,61,-387,-22,24,110,8,51,84,70,23.35,62892
-21,70,-130,-127,41,133,38,17,80,69,23.35,62978
-31,41,-363,-151,100,156,14,33,93,69,23.33,63065
-34,-16,258,-34,60,198,24,-66,124,62,23.35,63152
137,75,363,21,32,225,-47,193,117,62,23.51,63238
-23,78,-375,12,94,219,-25,75,114,54,23.41,63325
-73,42,-191,11,172,241,56,71,49,57,23.47,63411
-84,77,-477,-25,287,286,73,-38,45,65,23.47,63498
22,-23,-167,-14,342,290,-21,126,90,63,23.51,63585
-131,43,-512,131,295,296,-46,12,39,59,23.51,63671
14,-45,216,295,226,270,-36,21,45,53,23.35,63758
96,26,19,252,254,263,-25,49,69,52,23.51,63844
15,34,-47,-97,172,273,-50,12,49,56,23.53,63931
-77,-1,-163,-153,-273,184,-95,3,61,60,23.51,64017
47,30,-512,-289,-482,145,-30,140,-47,65,23.47,64104
72,69,-512,-371,-1,-1,-23,63,3,72,23.39,64190
2,27,-512,-299,-478,137,49,-94,66,74,23.29,64277
-197,-15,-20,-188,-160,148,36,-122,118,73,23.29,64364
85,-53,-198,-22,175,149,54,-9,113,63,23.39,64450
90,106,-512,-27,356,148,27,38,103,53,23.39,64537
129,89,-448,-42,245,128,0,5,60,53,23.35,64623
-22,26,132,-533,310,148,74,1,47,82,23.35,64710
-14,-27,209,-142,130,69,75,43,39,63,23.39,64797
-104,12,-310,-56,-155,50,28,-70,59,82,23.29,64883
53,-102,-146,-274,-10,60,27,15,75,118,23.41,64970
-63,45,-350,-262,-41,50,74,-47,84,242,23.41,65056
6,-6,-112,-272,-231,38,75,-23,171,491,23.35,65143
-133,84,-127,-390,-108,45,42,-88,103,487,23.33,65230
27,125,-477,-525,68,33,42,-12,85,499,23.41,65316
-10,27,-325,-380,57,6,90,-162,166,497,23.27,65403
-75,-11,-304,-142,178,-6,110,9,74,506,23.39,65489
-67,66,-418,-127,364,20,132,-50,104,521,23.39,65576
-97,26,-315,317,531,22,110,19,85,531,23.39,65664
-98,-19,-428,618,546,22,35,-151,84,229,23.39,65750
-26,38,-185,618,82,0,37,40,62,67,23.45,65837
-71,-41,-250,-40,-262,-16,49,-140,57,72,23.51,65923
-80,-10,-416,2,83,37,87,-18,50,68,23.39,66010
34,-38,32,-73,122,84,63,-112,77,60,23.53,66096
-113,-51,-512,-37,74,97,-20,50,68,56,23.47,66183
194,105,338,136,116,103,59,-13,25,58,23.45,66270
-98,-50,-512,-47,190,157,69,-87,117,58,23.35,66356
162,18,-376,-34,33,160,11,-193,121,73,23.35,66443
15,33,-512,-64,-36,171,-27,38,121,88,23.57,66529
56,-30,-144,-130,-21,182,68,-35,53,113,23.51,66616
7,55,-143,-171,56,163,2,-120,86,160,23.39,66703
-21,-26,-512,-71,13,140,29,-60,-72,204,23.57,66789
-93,29,-84,-38,-47,124,13,-8,87,235,23.47,66876
33,49,-510,-31,-6,124,-14,153,-2,262,23.59,66962
-182,-14,112,121,197,142,-36,17,35,283,23.57,67049
-99,-56,-512,57,405,122,-58,37,60,323,23.57,67135
85,52,-221,-152,435,86,19,-20,-83,426,23.57,67222
-8,9,77,-199,417,17,27,-34,-38,492,23.51,67309
53,98,-224,-373,371,-41,-14,24,-44,488,23.39,67395
-4,16,137,-352,234,-117,14,-33,11,486,23.51,67482
81,115,-219,-207,95,-175,71,20,-7,488,23.57,67568
-51,11,-158,12,-206,-241,50,-30,-12,493,23.57,67655
36,12,-389,257,-796,-301,31,-12,44,500,23.59,67742
-259,18,-435,357,-1234,-378,-40,96,169,495,23.47,67829
95,39,-136,202,-1183,-368,-13,-12,229,493,23.47,67915
-176,-17,-502,-184,-615,-310,-9,-62,225,506,23.59,68002
-121,-17,28,-205,282,-206,-56,-90,320,529,23.63,68089
-113,74,197,-82,1207,-117,72,-73,170,553,23.59,68176
-94,-4,-238,220,1293,-94,-67,27,102,485,23.63,68262
188,91,-107,239,693,-125,-33,-82,141,455,23.53,68349
-39,10,157,-139,-5,-156,-67,64,27,547,23.53,68436
-94,-26,-290,-527,-146,-123,18,-255,179,584,23.51,68523
144,-11,-512,-449,-44,-73,-17,6,140,585,23.51,68610
82,45,-120,-207,150,-62,-26,2,158,587,23.45,68697
-168,-7,-87,-307,310,-16,61,26,123,583,23.57,68783
14,34,-37,-432,209,10,13,37,4,584,23.35,68870
-145,-40,-512,-380,-10,-7,24,-94,152,584,23.35,68956
-195,11,130,-269,-86,-18,75,10,62,582,23.47,69043
-65,-10,-139,-51,-160,-29,156,-20,84,572,23.41,69130
-33,89,-462,72,-223,-22,-14,-225,241,575,23.39,69216
12,18,220,-114,-55,14,40,-19,170,574,23.39,69303
-16,-26,-512,-276,153,37,65,39,81,574,23.79,69389
-46,81,-303,-264,142,55,53,-110,116,573,23.39,69476
-48,102,-141,-311,72,72,84,-64,159,575,23.47,69563
50,58,-512,-142,39,52,147,-123,22,574,23.51,69650
226,124,-154,71,298,73,211,-136,44,577,23.41,69736
275,105,-11,518,490,87,84,-56,74,585,23.57,69823
204,160,-213,750,554,83,31,2,138,596,23.51,69910
-24,140,-512,458,302,90,29,-82,82,598,23.51,69996
-120,-7,-351,9,-10,104,-53,-17,69,590,23.51,70083
-112,-35,-361,-251,-117,118,-60,52,36,571,23.39,70169
177,79,-293,-158,-76,140,-53,3,86,564,23.65,70256
-202,-50,-81,100,8,158,5,78,27,550,23.35,70343
85,187,-506,80,70,157,-32,-79,112,536,23.51,70429
-159,-11,-259,36,86,175,-50,165,9,526,23.47,70516
82,-23,-126,-184,57,200,33,15,51,508,23.51,70602
-49,63,-77,-225,-117,187,-15,-14,88,486,23.51,70689
81,51,-103,-526,-284,185,33,20,79,467,23.35,70776
89,146,-393,-657,-440,180,93,33,-55,463,23.39,70862
81,15,77,-545,-363,194,53,-58,148,458,23.33,70949
-185,60,-48,-82,-40,195,161,53,4,448,23.53,71036
-106,46,-327,2,289,242,127,-86,141,440,23.51,71122
166,118,-110,6,250,240,104,-58,92,428,23.45,71209
32,166,-468,-52,41,230,54,-39,120,412,23.35,71297
-21,46,-386,-136,6,217,65,51,-7,411,23.51,71383
-30,39,-296,-103,230,276,108,-105,62,410,23.51,71470
95,10,-200,231,435,273,166,-8,-65,408,23.33,71557
-27,46,-53,603,426,259,129,-19,-2,410,23.51,71643
162,188,-170,602,234,241,5,13,-4,414,23.51,71730
189,140,-40,383,12,230,-21,114,-36,413,23.53,71817
-58,53,-464,-150,-98,244,77,72,-115,400,23.59,71903
-103,-2,-512,-343,-126,255,48,4,1,398,23.45,71990
213,77,-91,-178,-32,262,53,115,-93,389,23.39,72077
-6,74,-110,28,79,259,40,42,-7,382,23.39,72163
58,33,-161,73,189,259,10,49,-25,381,23.47,72250
115,111,-69,72,126,254,-62,-31,31,373,23.45,72336
-41,-30,-361,-123,-21,252,97,-50,-45,370,23.41,72423
7,29,-393,-251,-66,252,11,30,-60,359,23.39,72509
-107,54,-302,-142,-63,244,-20,2,-29,352,23.41,72596
192,124,-294,-40,-74,251,41,3,-36,342,23.45,72683
-106,71,-386,-125,-114,254,47,25,-20,333,23.53,72769
18,66,-344,-302,-159,246,85,-46,15,322,23.53,72856
27,-33,-283,-352,-197,230,35,-62,5,317,23.51,72943
137,64,-347,-465,-84,252,97,-73,64,313,23.51,73029
-31,38,35,-369,67,264,147,-64,3,307,23.39,73116
-23,0,-293,-239,91,256,83,54,-4,300,23.45,73202
-91,97,-188,-230,98,263,176,-79,-126,301,23.47,73289
-54,17,84,-199,187,277,63,5,-33,300,23.47,73376
-125,14,-478,-109,212,275,162,-86,-55,297,23.57,73462
94,106,-91,128,155,255,134,-100,-1,295,23.57,73549
-26,-16,-259,273,198,265,86,-32,-27,295,23.41,73636
15,78,-181,262,152,285,70,17,-62,298,23.51,73722
-72,-11,-3,126,69,267,58,-18,-146,300,23.35,73809
19,-19,-81,18,-10,271,72,-30,-87,302,23.39,73896
-31,-43,-168,-16,-29,264,31,84,-138,303,23.39,73982
-17,-39,-159,19,17,261,45,-139,-115,305,23.45,74070
-94,-15,-309,78,78,269,34,-241,-228,309,23.39,74157
35,58,-22,130,87,257,-5,-4,-34,312,23.39,74243
8,44,116,109,92,240,-26,12,-122,317,23.39,74330
-1,7,-207,15,124,173,-21,2,-81,319,23.35,74416
27,25,-19,-42,123,116,46,-51,-117,321,23.29,74503
-122,27,-512,-173,208,52,33,1,-112,322,23.39,74589
-20,5,-184,-205,225,5,49,71,-106,322,23.39,74676
74,109,-104,-179,257,-53,103,-52,-132,323,23.47,74763
-133,57,-512,-195,243,-100,78,4,-145,324,23.41,74849
43,22,-89,-105,201,-152,92,-19,-182,325,23.41,74936
-100,60,338,67,109,-209,128,2,-147,328,23.35,75023
-6,30,103,183,39,-251,102,11,-182,329,23.41,75109
-161,34,-512,218,-20,-278,63,5,-128,332,23.41,75196
-5,70,-100,188,-81,-323,-28,-16,-94,337,23.51,75283
55,23,-50,264,-172,-377,67,-16,-61,343,23.35,75369
44,-20,-512,83,-179,-396,-20,19,-76,346,23.45,75456
93,70,28,151,-170,-444,-72,19,-19,303,23.57,75543
110,94,-457,211,-165,-465,-56,43,-35,250,23.39,75629
-19,10,45,168,-167,-499,-31,-5,-3,199,23.39,75716
-10,-22,-30,168,-251,-523,-76,36,30,169,23.47,75802
97,62,-414,-233,-375,-543,-39,41,72,165,23.41,75889
-22,90,-260,-679,-356,-513,-32,-41,121,201,23.53,75976
159,-21,282,-1057,39,-440,-13,125,110,366,23.51,76063
24,39,-512,-1045,630,-359,23,-2,79,380,23.35,76149
81,41,-325,-361,864,-357,158,-45,14,391,23.35,76236
-28,-1,-173,453,692,-397,23,-51,90,204,23.35,76323
129,50,-80,776,500,-419,14,51,58,72,23.35,76409
-170,-28,-111,498,361,-461,-18,78,-18,112,23.39,76496
33,104,-512,-322,-710,-456,66,90,61,48,23.35,76583
282,110,-191,363,268,-314,41,135,-4,51,23.39,76669
-1,24,-74,-824,108,-186,65,133,-2,74,23.17,76756
87,-3,-512,-125,113,-144,76,128,-2,53,23.35,76843
19,13,-512,-71,100,-153,79,131,13,57,23.33,76930
35,-21,-242,-100,85,-150,75,135,13,59,23.23,77017
-2,37,-270,-60,84,-6,78,137,15,60,23.23,77103
-24,16,-255,-68,73,11,81,137,17,62,23.29,77190
16,24,-311,-66,70,41,80,134,20,62,23.27,77276
-3,39,-271,-74,71,24,78,134,20,59,23.23,77363
-13,37,-258,-74,72,17,79,137,19,59,23.21,77449
-10,40,-282,-68,70,33,78,135,21,57,23.23,77536
-1,32,-268,-70,72,28,76,136,13,62,23.33,77622
-3,38,-260,-72,74,17,79,133,15,60,23.17,77708
-1,35,-246,-71,72,28,80,137,17,59,23.17,77795
-13,29,-266,-71,73,29,80,134,21,57,23.23,77881
-5,37,-261,-71,72,21,79,135,19,56,23.41,77968
-6,31,-259,-71,72,21,78,136,19,56,23.33,78054
-8,33,-269,-68,72,28,78,142,17,58,23.23,78141
-1,37,-262,-71,74,22,78,138,16,58,23.29,78227
-8,31,-262,-72,73,19,79,134,17,60,23.21,78314
-4,32,-261,-69,71,28,78,137,19,55,23.23,78400
1,36,-248,-71,73,29,80,133,17,58,23.23,78487
-3,38,-268,-71,70,23,79,135,15,59,23.29,78573
-6,37,-270,-72,71,22,81,136,15,57,23.27,78660
-5,36,-269,-70,73,29,83,136,12,61,23.39,78746
-7,33,-270,-70,72,27,79,134,16,57,23.29,78832
-6,29,-257,-71,71,21,79,134,14,56,23.35,78919
-4,33,-266,-72,71,26,76,138,18,61,23.45,79005
-2,37,-267,-72,72,29,76,136,11,58,23.33,79092
-4,33,-276,-69,70,23,81,136,17,55,23.33,79178
-4,36,-268,-71,70,23,78,138,16,58,23.33,79265
-6,34,-257,-72,72,29,79,137,18,56,23.29,79351
-10,33,-267,-71,71,25,77,135,18,59,23.29,79438
-6,29,-261,-71,72,22,82,135,17,59,23.29,79524
-8,34,-265,-71,71,27,77,135,20,59,23.35,79611
-3,31,-262,-69,72,26,79,138,16,66,23.39,79697
-3,32,-260,-71,72,24,78,136,17,58,23.29,79784
-3,32,-259,-70,72,25,76,136,18,56,23.29,79870
-4,33,-262,-71,72,27,78,134,17,54,23.29,79958
-5,32,-264,-71,71,23,79,135,17,58,23.45,80044
-4,32,-265,-70,72,25,82,136,17,58,23.35,80130
-5,33,-262,-70,72,28,81,137,16,59,23.33,80217
-4,33,-262,-71,72,25,79,138,16,59,23.33,80303
-5,33,-262,-71,72,23,78,137,17,59,23.35,80390
-4,34,-264,-70,71,26,77,135,16,57,23.35,80476
-4,33,-264,-71,71,26,77,135,21,62,23.35,80563
-4,33,-263,-71,72,23,77,138,16,60,23.33,80649
-3,33,-264,-71,72,26,78,135,17,58,23.45,80736
-3,34,-263,-70,72,26,78,135,16,57,23.35,80822
-4,34,-263,-71,72,24,79,136,16,61,23.35,80909
-3,33,-263,-71,71,25,78,133,18,63,23.39,80995
-4,33,-262,-70,72,27,77,135,15,58,23.35,81082
-3,33,-259,-71,71,25,79,137,16,60,23.33,81168
-3,33,-263,-70,72,24,78,135,15,59,23.33,81255
-4,33,-262,-70,72,25,78,134,18,60,23.39,81341
-4,34,-263,-70,72,26,76,135,15,60,23.33,81427
-4,34,-263,-70,72,25,78,136,15,59,23.33,81514
-4,33,-263,-70,72,25,80,135,17,59,23.39,81600
-3,34,-261,-70,72,26,79,136,15,60,23.39,81687
-4,34,-263,-70,72,25,80,136,13,58,23.45,81773
-4,31,-262,-71,72,24,77,138,16,59,23.45,81860
-3,32,-261,-71,71,26,80,136,19,59,23.45,81946
-3,32,-263,-71,71,26,79,135,18,58,23.45,82033
-4,33,-263,-70,72,24,80,137,17,58,23.41,82119
-4,34,-263,-71,72,25,79,140,19,60,23.35,82206
-4,33,-262,-71,72,26,81,137,16,55,23.23,82292
-4,34,-262,-70,72,25,77,134,19,60,23.41,82379
-3,32,-261,-71,72,25,80,136,17,60,23.45,82465
-5,33,-263,-70,72,25,79,136,15,57,23.41,82552
-3,32,-263,-70,72,26,79,133,16,56,23.41,82638
-4,34,-261,-71,72,25,76,134,17,60,23.27,82724
-4,33,-262,-70,72,25,79,136,15,56,23.35,82811
-4,34,-262,-70,72,26,77,134,15,58,23.39,82897
-3,32,-262,-70,72,25,77,133,19,58,23.33,82984
-3,32,-263,-70,72,25,79,133,16,60,23.33,83070
-3,32,-263,-71,71,25,80,135,18,59,23.39,83158
-5,34,-262,-70,72,25,79,135,16,58,23.41,83244
-4,32,-264,-71,72,25,79,135,16,59,23.41,83331
-4,32,-261,-70,72,25,79,135,15,56,23.39,83417
-4,33,-261,-70,71,26,81,135,16,61,23.39,83504
-6,34,-263,-71,72,25,77,137,14,60,23.39,83590
-4,33,-262,-71,71,25,80,137,18,56,23.41,83677
-4,33,-263,-71,72,26,77,134,16,61,23.39,83763
-5,34,-261,-71,72,25,78,135,16,59,23.41,83850
-5,34,-261,-70,72,25,79,136,19,62,23.41,83936
-3,33,-261,-71,72,25,80,138,17,58,23.39,84022
-4,33,-261,-70,71,25,78,138,16,60,23.39,84109
-3,33,-263,-71,72,25,76,137,15,61,23.45,84195
-4,33,-261,-70,71,25,79,136,19,59,23.39,84282
-4,32,-259,-70,71,25,80,137,18,59,23.35,84368
-4,33,-265,-70,72,25,77,133,19,60,23.45,84455
-4,32,-261,-71,72,25,78,135,18,58,23.41,84541
-4,33,-265,-71,72,25,78,134,18,57,23.41,84628
-2,33,-261,-70,71,25,79,135,16,58,23.41,84714
-3,33,-262,-71,72,25,79,136,17,58,23.41,84801
-4,32,-264,-70,71,25,76,136,16,62,23.45,84887
-4,33,-262,-71,72,25,76,135,15,57,23.39,84974
-5,33,-263,-70,71,25,79,134,17,59,23.45,85060
-6,34,-264,-70,71,25,79,135,15,57,23.57,85146
-5,33,-263,-70,72,25,77,139,17,57,23.41,85233
-4,33,-263,-70,71,26,78,136,17,61,23.39,85319
-4,33,-263,-70,71,25,76,137,17,57,23.35,85406
-5,35,-263,-70,71,25,80,140,15,57,23.35,85492
-4,33,-264,-70,72,26,79,138,15,57,23.47,85579
-4,33,-261,-70,72,25,78,135,12,57,23.41,85665
-4,34,-264,-71,72,25,79,139,16,59,23.41,85752
-3,34,-264,-71,71,25,82,139,17,55,23.51,85838
-4,33,-260,-71,71,25,77,134,17,57,23.41,85925
-3,34,-261,-71,72,25,77,137,18,57,23.41,86011
-4,35,-262,-70,71,25,80,136,16,57,23.45,86098
-4,33,-262,-70,72,25,73,138,19,59,23.45,86184
-3,33,-262,-70,72,25,80,137,17,58,23.41,86270
-3,33,-262,-71,72,25,77,132,17,58,23.39,86358
-3,34,-261,-71,71,25,75,137,16,56,23.57,86444
-5,33,-261,-71,72,25,77,135,17,55,23.41,86531
-3,33,-263,-71,72,25,76,134,15,61,23.41,86617
-5,32,-261,-70,72,25,77,135,17,60,23.57,86704
-5,33,-261,-71,71,25,79,135,17,59,23.33,86790
-2,33,-263,-71,72,25,80,133,17,59,23.33,86877
-4,33,-262,-71,72,25,74,132,16,58,23.35,86963
-4,33,-264,-71,72,26,77,136,13,58,23.47,87050
-4,32,-260,-70,71,25,79,136,13,60,23.41,87136
-3,34,-263,-71,72,25,81,134,16,62,23.45,87223
-3,33,-261,-71,71,25,77,136,13,60,23.45,87309
-4,33,-262,-71,72,25,79,136,15,57,23.53,87396
-4,32,-261,-70,72,25,79,136,15,60,23.33,87482
-4,32,-261,-71,71,25,77,136,18,56,23.33,87568
-4,33,-259,-71,72,25,79,135,17,56,23.35,87655
-4,32,-263,-70,71,25,77,135,16,57,23.41,87741
-3,33,-264,-71,72,25,79,138,16,59,23.47,87828
-4,34,-266,-72,70,25,76,136,16,58,23.41,87914
-3,33,-265,-71,70,25,80,134,16,57,23.47,88001
-4,33,-262,-70,71,26,78,135,16,58,23.51,88087
-5,34,-262,-70,71,25,78,136,17,58,23.47,88174
-2,34,-262,-70,72,26,81,135,16,58,23.47,88260
-5,33,-259,-70,72,25,76,137,18,59,23.47,88347
-3,33,-265,-70,72,26,78,134,19,61,23.41,88433
-5,34,-262,-71,72,25,79,136,17,59,23.45,88520
-4,33,-263,-71,71,25,77,136,19,57,23.51,88606
3,29,-188,-68,70,26,79,136,18,58,23.53,88693
-5,33,-268,-70,70,27,80,133,18,56,23.47,88779
-3,33,-264,-70,71,22,77,134,20,58,23.41,88865
-5,34,-261,-71,71,24,76,131,17,58,23.41,88952
-7,32,-262,-62,76,25,76,132,18,55,23.57,89038
-5,32,-266,-72,68,29,77,131,20,58,23.45,89125
-7,32,-254,-74,84,22,76,131,19,63,23.47,89211
-2,36,-270,-74,75,22,79,130,22,61,23.45,89298
-4,31,-264,-66,72,23,76,130,21,58,23.39,89384
-5,30,-275,-18,126,22,75,133,20,53,23.41,89472
-3,27,-266,-20,113,19,69,134,20,52,23.57,89558
-3,7,-277,-41,83,22,64,134,17,52,23.57,89645
-15,42,-275,53,99,21,61,138,14,48,23.35,89731
-4,20,-282,222,100,73,50,143,12,42,23.41,89818
4,-2,-263,217,80,192,37,147,10,42,23.45,89904
-3,-9,-260,185,-1,384,11,155,8,39,23.47,89991
-6,-16,-252,198,-41,590,3,160,4,32,23.35,90077
-12,-16,-247,178,-28,793,-7,161,3,35,23.45,90164
-15,-12,-257,95,65,921,-9,163,-14,38,23.53,90250
-34,-26,-265,-114,107,964,-5,161,-26,43,23.53,90337
-28,-13,-291,-345,75,978,10,160,-38,62,23.63,90423
-34,-14,-326,-383,53,989,30,151,-53,98,23.57,90510
-42,22,-267,-277,57,941,56,138,-84,142,23.59,90597
-34,6,-272,-115,146,929,57,134,-100,188,23.53,90683
-29,-14,-267,-129,53,997,58,134,-120,251,23.53,90770
-28,6,-253,-106,59,1132,53,128,-157,275,23.51,90857
-27,7,-253,-125,283,1167,43,129,-186,287,23.63,90944
-37,12,-246,-233,218,1113,38,119,-214,294,23.63,91030
0,30,-229,-256,147,1003,35,117,-234,308,23.53,91117
-16,40,-233,-264,43,849,26,111,-264,324,23.59,91204
15,49,-210,-249,-103,804,22,110,-271,304,23.47,91291
27,40,-212,-284,-178,848,17,110,-273,319,23.57,91377
1,41,-246,-282,-353,839,7,114,-260,401,23.47,91464
3,32,-263,-190,-446,818,3,120,-246,445,23.69,91551
-7,46,-240,-36,-442,759,-7,129,-234,502,23.57,91637
-11,14,-274,112,-563,716,-18,137,-214,643,23.57,91724
-26,11,-249,243,-657,628,-56,155,-163,607,23.59,91811
-32,38,-263,334,-444,531,-78,158,-135,144,23.63,91898
-26,17,-250,342,47,430,-96,157,-123,178,23.63,91984
-10,10,-281,262,358,403,-135,159,-150,107,23.47,92071
-16,19,-316,184,481,442,-150,158,-170,78,23.47,92158
-14,18,-298,137,471,482,-164,154,-187,86,23.51,92246
-85,-21,-289,40,536,386,-176,150,-207,57,23.45,92332
-7,3,-269,35,572,273,-192,136,-250,49,23.41,92419
-16,44,-139,-512,40,244,-180,136,-250,55,23.41,92506
-4,-23,51,-111,53,79,-162,137,-251,86,23.57,92592
5,9,-411,-118,-7,10,-155,138,-246,90,23.47,92679
-22,27,-357,-86,74,37,-156,144,-247,89,23.47,92765
-3,27,-232,-70,71,8,-157,144,-249,90,23.63,92852
-11,31,-267,-70,69,29,-156,148,-247,91,23.41,92939
-1,34,-264,-69,72,32,-158,153,-250,91,23.63,93025
-4,31,-264,-72,71,14,-157,154,-251,89,23.51,93112
-5,31,-263,-72,70,26,-154,156,-251,91,23.51,93198
-2,33,-260,-70,71,32,-157,154,-255,91,23.51,93285
-4,32,-260,-72,72,18,-155,153,-253,93,23.53,93371
-7,31,-258,-71,71,25,-155,155,-252,89,23.51,93458
-2,32,-264,-71,71,31,-154,153,-249,91,23.51,93545
-2,33,-261,-72,71,20,-152,155,-252,90,23.47,93631
-5,32,-262,-71,71,24,-157,154,-253,89,23.51,93718
-2,33,-272,-70,72,30,-152,153,-252,89,23.63,93804
-2,33,-265,-71,73,22,-151,152,-249,86,23.63,93891
-5,31,-262,-71,72,22,-154,152,-252,89,23.57,93977
-3,33,-261,-71,72,29,-155,152,-253,87,23.53,94064
-2,32,-260,-71,72,23,-157,151,-250,91,23.51,94151
-3,31,-262,-71,71,22,-155,150,-250,91,23.53,94237
-2,32,-259,-70,71,28,-155,150,-251,90,23.59,94324
-2,34,-262,-70,72,25,-152,151,-250,94,23.57,94410
-3,32,-266,-71,72,22,-155,151,-249,85,23.63,94497
-4,33,-264,-70,72,26,-157,154,-250,92,23.63,94583
-3,34,-263,-71,72,25,-157,150,-250,95,23.57,94670
-2,32,-260,-71,72,22,-156,149,-251,93,23.47,94757
-5,33,-262,-70,71,25,-155,152,-252,93,23.57,94843
-2,33,-261,-70,72,26,-159,154,-253,88,23.69,94930
-3,32,-256,-72,72,23,-157,153,-250,88,23.71,95016
-3,33,-264,-70,72,25,-156,154,-251,92,23.69,95104
-1,32,-263,-70,71,27,-152,152,-251,91,23.57,95191
-4,33,-261,-71,71,24,-156,152,-250,96,23.57,95277
-2,31,-263,-71,71,24,-155,153,-254,95,23.69,95364
-3,32,-264,-70,71,27,-153,153,-252,86,23.65,95450
-2,32,-265,-70,72,24,-152,155,-252,93,23.65,95537
-3,34,-261,-71,72,24,-153,153,-250,95,23.69,95623
-3,34,-260,-70,71,26,-154,152,-251,91,23.69,95710
-3,32,-260,-70,71,26,-154,153,-251,91,23.57,95797
-2,32,-264,-71,71,24,-156,154,-250,66,23.59,95883
-4,32,-263,-70,72,26,-152,151,-253,45,23.59,95970
-4,35,-274,-75,-1,-1,-153,155,-254,41,23.57,96056
-2,30,-258,-69,73,24,-158,154,-248,41,23.57,96143
-2,31,-257,-70,71,24,-154,152,-253,40,23.47,96229
-2,33,-263,-70,72,25,-151,150,-250,41,23.51,96316
-1,32,-258,-70,72,25,-155,151,-251,42,23.57,96403
-3,33,-263,-70,72,25,-154,149,-253,41,23.69,96489
-3,33,-261,-71,71,25,-156,154,-251,40,23.63,96576
-3,33,-262,-71,72,25,-157,149,-252,42,23.63,96662
-2,31,-263,-71,71,25,-156,152,-252,41,23.63,96749
-4,33,-262,-70,72,25,-156,151,-253,42,23.47,96835
-3,33,-262,-70,72,25,-154,156,-252,41,23.53,96922
-3,32,-263,-70,72,24,-153,151,-250,41,23.53,97009
-4,32,-262,-71,72,26,-153,150,-248,40,23.51,97095
-2,34,-265,-70,71,25,-151,153,-250,40,23.65,97182
-4,33,-268,-71,72,24,-157,154,-252,39,23.59,97268
-3,32,-262,-71,71,25,-156,154,-250,52,23.69,97355
-2,33,-261,-70,72,25,-156,155,-253,93,23.69,97441
-2,31,-265,-70,71,25,-154,152,-251,94,23.47,97528
-3,33,-268,-70,71,25,-152,153,-251,98,23.65,97615
-3,33,-262,-70,71,25,-152,155,-252,93,23.65,97701
-4,33,-264,-70,72,25,-155,151,-249,89,23.57,97788
-2,31,-264,-70,72,25,-155,153,-250,97,23.65,97874
-2,33,-262,-70,71,25,-153,151,-253,90,23.57,97961
-4,32,-262,-71,72,25,-153,150,-249,91,23.57,98049
-2,33,-262,-71,71,25,-154,151,-252,92,23.57,98135
-3,33,-266,-71,72,25,-156,151,-251,92,23.69,98222
-2,32,-264,-71,71,25,-153,149,-251,92,23.45,98308
-2,32,-260,-70,71,25,-154,152,-250,88,23.59,98395
-4,34,-264,-70,71,25,-157,149,-251,95,23.69,98481
-3,34,-263,-70,72,25,-155,149,-253,98,23.63,98568
-3,32,-264,-70,72,25,-156,153,-253,89,23.65,98655
-3,32,-261,-71,72,25,-156,155,-251,91,23.69,98741
-4,31,-260,-71,71,25,-155,156,-248,94,23.69,98828
-2,31,-259,-71,71,25,-156,154,-249,92,23.57,98914
-3,32,-261,-70,72,25,-157,153,-254,95,23.59,99001
-2,32,-261,-70,72,25,-152,153,-251,93,23.57,99087
-3,33,-263,-71,72,25,-153,155,-251,95,23.53,99174
-3,33,-260,-70,71,25,-153,153,-250,94,23.63,99261
-2,33,-271,-72,72,25,-153,153,-252,91,23.47,99347
-3,32,-264,-70,71,25,-156,154,-253,92,23.59,99434
-1,33,-270,-70,71,25,-156,151,-251,92,23.59,99520
-3,33,-264,-70,71,25,-152,154,-250,92,23.69,99607
-3,33,-262,-71,72,25,-155,150,-253,89,23.65,99693
-1,31,-248,-72,72,25,-153,153,-252,89,23.57,99780
-5,36,-291,-73,72,25,-155,155,-251,91,23.53,99867
-3,36,-259,-71,71,25,-156,153,-254,90,23.57,99953
-2,35,-263,-68,72,25,-154,149,-249,93,23.63,100040
-3,32,-258,-70,72,25,-155,149,-252,94,23.69,100126
-2,32,-261,-70,71,24,-157,150,-250,93,23.69,100213
-3,33,-262,-70,72,24,-155,148,-252,96,23.65,100300
-4,32,-262,-70,71,24,-155,148,-253,93,23.53,100386
-2,33,-261,-71,71,26,-154,150,-252,95,23.51,100473
-4,32,-262,-70,72,25,-155,150,-252,93,23.71,100560
-3,34,-264,-70,72,25,-155,152,-252,97,23.65,100646
-5,31,-261,-70,71,25,-157,153,-249,90,23.63,100733
-3,33,-261,-71,72,25,-154,152,-253,93,23.65,100819
-3,33,-265,-71,71,25,-154,152,-250,92,23.65,100907
-4,33,-262,-71,72,25,-152,152,-249,89,23.59,100994
-3,32,-264,-70,72,25,-153,152,-251,97,23.69,101080
-3,32,-261,-70,72,25,-155,157,-252,93,23.65,101167
-2,33,-261,-70,71,25,-153,152,-251,90,23.63,101254
-3,33,-260,-70,71,25,-151,152,-250,95,23.59,101340
-3,33,-262,-71,72,25,-156,151,-252,87,23.71,101427
-3,33,-264,-71,71,25,-152,151,-250,96,23.71,101513
-3,34,-262,-71,71,25,-155,152,-250,91,23.57,101600
-4,32,-262,-71,71,24,-152,149,-252,94,23.57,101687
-4,32,-263,-71,71,25,-155,150,-252,96,23.65,101773
-4,33,-262,-71,72,25,-151,150,-250,91,23.71,101860
-3,33,-263,-70,72,25,-155,150,-250,93,23.53,101947
-4,32,-264,-71,72,25,-156,151,-247,94,23.63,102033
-4,33,-260,-71,71,25,-156,152,-251,94,23.57,102120
-4,34,-263,-71,71,24,-155,150,-252,93,23.57,102206
-1,33,-260,-71,71,24,-156,153,-248,93,23.65,102293
-4,32,-265,-70,72,26,-155,157,-249,95,23.65,102380
-3,33,-262,-73,68,26,-153,158,-243,94,23.63,102466
-2,30,-264,-71,72,24,-155,156,-256,98,23.47,102553
-6,33,-261,-70,72,26,-152,158,-247,95,23.65,102640
-2,33,-263,-71,73,25,-153,158,-249,93,23.59,102726
-4,33,-265,-70,71,23,-154,157,-248,95,23.57,102813
-5,32,-263,-70,71,25,-153,157,-248,94,23.51,102900
-4,33,-266,-70,72,26,-152,160,-247,93,23.63,102986
-4,32,-266,-71,71,23,-151,161,-249,95,23.63,103073
-3,34,-260,-71,71,25,-151,159,-245,93,23.51,103159
-3,33,-264,-70,72,26,-149,159,-249,92,23.53,103246
-3,32,-261,-70,71,24,-151,157,-245,88,23.63,103333
-4,33,-262,-70,71,23,-151,156,-247,93,23.41,103419
-5,32,-269,-70,71,27,-151,158,-246,92,23.65,103506
-4,38,-262,-69,71,25,-154,155,-250,95,23.65,103593
-5,35,-261,-71,72,22,-156,158,-249,92,23.57,103680
-3,33,-263,-70,71,26,-151,159,-247,94,23.57,103767
-2,33,-263,-75,-258,-258,-152,155,-248,93,23.53,103854
-2,32,-290,-73,73,23,-153,157,-245,91,23.75,103940
-3,32,-263,-68,70,26,-151,161,-243,90,23.57,104027
-3,34,-252,-70,71,26,-152,158,-248,92,23.53,104113
-5,33,-265,-70,71,24,-153,158,-249,92,23.75,104200
-3,32,-262,-70,71,25,-152,159,-246,93,23.75,104287
-4,33,-261,-70,72,25,-154,158,-248,94,23.65,104373
-3,33,-262,-71,72,24,-155,158,-248,92,23.65,104460
-3,33,-260,-71,71,25,-155,160,-246,95,23.63,104547
-3,33,-260,-72,72,26,-154,157,-245,93,23.65,104633
-1,33,-262,-70,71,25,-155,157,-248,93,23.59,104720
-5,35,-270,-70,71,24,-149,157,-249,92,23.69,104806
-3,33,-260,-70,72,25,-153,158,-251,95,23.75,104893
-4,34,-263,-70,71,25,-152,159,-247,91,23.71,104980
-4,33,-264,-68,71,25,-150,159,-248,91,23.79,105066
-2,32,-259,-69,71,24,-153,160,-248,96,23.79,105153
-2,31,-264,-70,72,25,-151,161,-244,96,23.75,105240
-3,34,-260,-71,72,25,-151,157,-250,92,23.63,105326
-2,33,-257,-70,71,25,-152,156,-249,98,23.63,105413
-4,32,-260,-71,71,25,-153,155,-248,91,23.79,105499
-3,31,-259,-71,72,25,-153,155,-246,94,23.65,105586
-3,31,-262,-71,72,24,-151,156,-246,96,23.75,105673
-3,31,-261,-71,72,25,-155,153,-248,98,23.71,105759
-16,55,-366,-69,72,26,-155,157,-247,96,23.65,105846
-15,43,-255,-70,68,24,-170,186,-245,90,23.65,105933
-18,-8,-273,-67,70,27,-153,159,-247,93,23.81,106019
-6,31,-273,-71,72,27,-155,160,-249,92,23.69,106106
-4,32,-268,-70,72,21,-152,159,-250,96,23.69,106193
-4,33,-260,-70,71,25,-155,157,-249,94,23.85,106279
-2,34,-262,-70,72,28,-155,160,-249,90,23.99,106366
-3,35,-257,-69,71,22,-154,163,-251,94,23.75,106452
-5,33,-260,-70,72,24,-154,160,-248,89,23.79,106540
-3,32,-260,-71,71,28,-153,161,-248,93,23.79,106627
-2,33,-245,-69,74,25,-154,160,-246,93,23.81,106713
-5,33,-276,-71,72,23,-156,161,-249,92,23.79,106800
-4,32,-265,-70,72,27,-152,161,-247,90,23.75,106887
-3,32,-264,-70,72,26,-152,159,-248,90,23.75,106973
-2,31,-261,-71,72,23,-152,157,-247,91,23.85,107060
-4,33,-261,-71,72,25,-152,159,-249,91,23.87,107146
-3,33,-263,-69,71,25,-156,157,-247,93,23.65,107233
-3,33,-266,-69,71,25,-154,158,-248,93,23.65,107320
-2,33,-262,-70,71,26,-153,156,-247,86,23.75,107406
-2,33,-265,-71,71,24,-153,160,-249,95,23.79,107493
-3,32,-263,-70,71,25,-154,159,-249,90,23.79,107580
-2,34,-262,-70,71,26,-156,156,-247,90,23.79,107666
-5,32,-262,-71,72,25,-154,158,-248,96,23.71,107753
-2,32,-262,-70,71,26,-155,158,-248,94,23.65,107839
-3,34,-261,-70,71,25,-156,158,-249,91,23.65,107926
-3,33,-263,-71,71,25,-157,156,-247,91,23.65,108013
-3,33,-263,-70,71,25,-149,159,-260,91,23.79,108099
-3,45,-262,-71,72,26,-186,323,-252,96,23.79,108186
-5,67,-266,-69,71,25,-165,155,-249,95,23.71,108273
-7,34,-245,-72,71,26,-155,159,-249,97,23.85,108359
-2,32,-264,-70,71,23,-153,160,-247,93,23.91,108446
-3,31,-259,-70,72,25,-155,161,-248,93,23.71,108532
-2,34,-257,-70,72,28,-151,158,-250,89,23.69,108619
-1,33,-262,-70,71,23,-154,160,-246,95,23.65,108706
-4,33,-259,-70,71,24,-154,158,-248,89,23.65,108792
-4,34,-263,-70,71,28,-154,158,-246,96,23.63,108879
-5,33,-268,-68,73,24,-153,160,-246,95,23.69,108966
-3,31,-270,-71,70,23,-151,159,-250,94,23.65,109052
-3,33,-265,-70,71,26,-155,158,-247,92,23.65,109139
-3,32,-267,-73,71,27,-155,159,-247,94,23.71,109225
-2,32,-262,-69,71,23,-154,160,-247,72,23.75,109313
-3,34,-259,-69,70,27,-156,156,-247,90,23.71,109400
-1,33,-261,-71,72,26,-151,156,-248,94,23.71,109486
-4,33,-257,-72,72,23,-156,157,-248,92,23.63,109573
-4,33,-266,-69,70,26,-152,158,-249,92,23.79,109660
-3,33,-277,-70,72,27,-154,158,-248,91,23.57,109746
-3,33,-259,-71,72,23,-156,156,-249,90,23.63,109833
-4,33,-256,-70,72,24,-155,158,-247,93,23.79,109919
-3,34,-258,-70,72,28,-154,159,-249,94,23.59,110006
-3,32,-262,-71,72,24,-154,160,-249,86,23.79,110093
-4,33,-261,-71,71,23,-152,159,-249,91,23.79,110179
-3,32,-264,-70,71,26,-153,160,-249,86,23.57,110266
-2,32,-269,-70,72,25,-153,158,-248,91,23.79,110353
-8,26,-265,-70,72,23,-154,161,-253,89,23.69,110439
5,70,-257,-70,70,26,-153,159,-231,88,23.69,110526
-12,-25,-264,-70,71,26,-154,159,-249,90,23.63,110612
-4,33,-262,-70,71,24,-154,161,-248,89,23.71,110699
-3,33,-260,-71,71,24,-156,162,-250,90,23.69,110786
-1,33,-264,-70,71,27,-154,161,-248,88,23.69,110872
-3,33,-263,-71,71,25,-154,160,-248,90,23.57,110959
-5,33,-261,-70,72,24,-151,159,-250,90,23.81,111046
-4,32,-264,-69,71,26,-156,158,-246,86,23.71,111132
-3,30,-267,-69,72,26,-153,157,-248,88,23.71,111219
-4,32,-263,-71,71,24,-156,161,-250,89,23.63,111305
-2,32,-261,-71,71,25,-156,160,-248,92,23.75,111392
-4,34,-262,-71,71,26,-155,161,-247,88,23.63,111479
-2,33,-261,-71,71,24,-156,159,-249,87,23.69,111565
-2,32,-263,-71,72,25,-156,160,-250,90,23.69,111652
-4,34,-260,-70,71,26,-155,159,-248,89,23.59,111739
-3,33,-258,-68,71,25,-154,159,-246,84,23.63,111825
-3,31,-260,-70,72,24,-158,159,-251,89,23.69,111912
-4,32,-260,-70,72,26,-156,158,-250,89,23.57,112000
-2,32,-260,-71,72,26,-156,159,-250,92,23.75,112086
-4,34,-263,-71,71,24,-153,161,-249,94,23.81,112173
-4,33,-263,-71,71,25,-156,163,-249,88,23.71,112259
-3,34,-266,-70,71,26,-154,159,-251,93,23.71,112346
-2,34,-270,-70,71,24,-153,162,-248,91,23.69,112433
-3,31,-264,-71,71,25,-155,158,-248,92,23.59,112519
-5,59,-264,-71,71,26,-153,161,-255,89,23.69,112606
1,36,-256,-71,72,25,-157,161,-250,88,23.65,112693
-7,9,-265,-70,71,25,-156,160,-246,92,23.71,112779
-11,42,-263,-70,71,24,-128,153,-246,87,23.59,112866
-2,30,-241,-77,79,27,-153,160,-247,93,23.65,112952
-3,31,-225,-71,75,25,-153,157,-249,93,23.65,113039
-3,32,-284,-71,72,23,-153,157,-249,93,23.71,113126
-6,28,-269,-70,72,27,-154,160,-247,93,23.71,113212
-2,32,-258,-72,72,25,-155,158,-248,92,23.65,113299
-3,32,-264,-71,72,23,-155,159,-248,96,23.59,113386
-3,33,-264,-70,71,26,-154,160,-248,97,23.75,113472
-3,33,-259,-71,71,26,-154,159,-249,95,23.75,113559
-3,32,-264,-70,71,23,-155,160,-247,89,23.57,113645
-5,32,-261,-71,71,25,-157,161,-244,98,23.57,113732
-2,32,-262,-70,71,27,-156,161,-249,95,23.75,113819
-2,33,-262,-71,71,24,-156,161,-248,98,23.53,113905
-3,33,-261,-70,72,24,-154,163,-248,100,23.69,113992
-3,33,-260,-70,71,26,-155,162,-250,94,23.71,114079
-4,33,-264,-70,72,25,-155,161,-249,98,23.65,114165
-4,32,-270,-70,71,24,-153,161,-246,91,23.79,114252
-4,33,-264,-70,71,26,-151,159,-249,90,23.71,114338
-4,33,-262,-70,72,26,-155,163,-246,58,23.71,114425
-2,33,-264,-71,71,24,-152,163,-248,58,23.65,114512
-6,33,-262,-71,72,24,-152,161,-250,59,23.65,114598
-3,34,-263,-71,71,26,-152,161,-246,59,23.63,114685
-2,34,-261,-71,71,24,-154,159,-250,58,23.59,114772
1,32,-262,-71,71,25,-143,182,-248,58,23.75,114859
1,31,-261,-70,71,25,-154,161,-248,57,23.57,114946
-9,43,-266,-71,71,26,-159,150,-243,57,23.65,115032
-5,59,-267,-70,71,24,-157,154,-244,58,23.65,115119
-17,12,-268,-70,71,23,-154,158,-248,58,23.63,115206
-2,31,-262,-70,71,28,-155,159,-247,55,23.57,115292
-3,33,-260,-70,71,24,-157,157,-250,58,23.47,115379
-4,33,-263,-70,72,23,-158,157,-247,59,23.75,115466
-3,33,-262,-70,71,27,-154,159,-245,58,23.65,115552
-2,33,-265,-71,72,25,-154,160,-247,59,23.65,115639
-4,31,-264,-71,72,23,-156,159,-250,60,23.63,115726
-4,32,-262,-70,71,25,-156,163,-251,58,23.63,115812
-4,33,-264,-70,72,26,-157,160,-248,60,23.63,115899
-3,33,-264,-70,72,24,-157,163,-249,58,23.63,115985
-3,33,-265,-70,71,25,-155,158,-247,58,23.59,116072
-3,33,-262,-70,71,26,-155,161,-247,61,23.71,116159
-3,33,-263,-71,72,24,-154,162,-251,58,23.75,116245
-4,33,-264,-70,71,25,-152,160,-245,57,23.57,116332
-3,32,-263,-70,71,26,-152,160,-246,59,23.59,116419
-2,31,-257,-70,71,25,-155,161,-249,58,23.63,116505
-3,34,-259,-70,71,24,-154,162,-248,60,23.63,116592
-4,32,-263,-70,71,25,-155,159,-248,55,23.57,116678
-4,31,-264,-72,72,26,-154,159,-245,53,23.59,116765
-3,32,-264,-71,72,25,-153,159,-247,57,23.69,116852
-4,33,-260,-70,71,26,-153,158,-249,57,23.59,116938
-3,34,-262,-70,71,26,-151,160,-249,59,23.53,117025
1,30,-263,-71,71,24,-169,191,-247,64,23.63,117112
-3,31,-268,-70,71,25,-155,159,-250,59,23.63,117198
-5,4,-267,-70,71,25,-156,159,-247,58,23.63,117285
-3,39,-262,-70,71,25,-156,156,-246,58,23.69,117371
0,57,-261,-71,71,22,-155,157,-250,57,23.65,117458
-4,32,-263,-70,71,26,-155,160,-248,60,23.59,117545
-4,33,-261,-71,71,28,-154,161,-249,60,23.57,117632
-4,33,-268,-72,71,22,-155,160,-248,59,23.59,117719
-4,32,-263,-70,71,25,-154,164,-246,59,23.63,117806
-3,34,-264,-70,71,29,-155,159,-249,58,23.59,117892
-2,33,-259,-71,72,23,-154,158,-248,59,23.59,117979
-3,32,-261,-71,71,23,-155,162,-249,57,23.69,118065
-3,32,-263,-70,71,28,-153,158,-247,61,23.65,118152
-3,33,-265,-70,71,24,-154,162,-249,58,23.63,118239
-3,32,-263,-70,71,23,-154,162,-246,57,23.59,118325
-4,34,-261,-70,72,27,-156,161,-245,61,23.59,118412
-2,33,-261,-71,71,26,-153,159,-247,59,23.69,118499
-3,33,-261,-71,72,23,-155,158,-249,57,23.75,118585
-4,33,-262,-70,71,26,-152,159,-245,58,23.75,118672
-3,33,-262,-69,71,26,-153,162,-248,64,23.75,118758
-3,34,-263,-70,71,23,-153,158,-247,60,23.63,118845
-3,34,-262,-71,71,24,-154,158,-247,60,23.47,118932
-2,33,-262,-70,71,27,-156,161,-248,56,23.81,119018
-2,32,-261,-71,71,24,-154,159,-245,59,23.63,119105
-4,33,-261,-71,72,24,-157,156,-250,61,23.53,119192
-2,34,-257,-71,71,26,-156,158,-246,57,23.69,119278
3,40,-258,-70,71,26,-161,168,-138,57,23.69,119365
-3,35,-260,-70,72,24,-155,160,-250,61,23.47,119451
0,38,-255,-71,72,25,-160,161,-249,59,23.65,119538
-3,33,-263,-70,71,26,-156,155,-245,59,23.59,119625
-15,-1,-267,-71,71,25,-147,162,-249,61,23.65,119711
-4,33,-261,-71,72,24,-155,160,-247,58,23.59,119798
-3,31,-264,-71,71,26,-151,160,-248,58,23.63,119885
-2,32,-263,-70,71,25,-154,161,-248,60,23.65,119971
-2,33,-262,-70,72,24,-149,161,-247,60,23.59,120058
-3,32,-260,-70,71,26,-155,161,-249,61,23.59,120144
-3,33,-264,-70,71,26,-157,163,-247,61,23.79,120231
-4,33,-262,-70,71,23,-153,160,-248,64,23.59,120318
-4,32,-262,-70,72,25,-155,159,-249,60,23.57,120404
-3,33,-263,-70,71,26,-154,160,-246,60,23.69,120492
-3,32,-262,-71,71,24,-155,158,-245,59,23.65,120579
-4,31,-261,-71,71,23,-155,159,-248,58,23.71,120665
-4,32,-263,-70,72,26,-156,160,-249,58,23.69,120752
-3,34,-263,-70,72,25,-156,157,-248,57,23.69,120839
-3,32,-262,-70,72,24,-157,159,-247,56,23.53,120925
-3,32,-261,-70,71,25,-156,157,-248,59,23.63,121012
-3,33,-261,-71,71,26,-155,158,-247,57,23.71,121098
-3,33,-264,-71,72,24,-154,160,-249,59,23.65,121185
-3,33,-263,-71,72,25,-157,158,-248,59,23.57,121272
-3,32,-263,-70,71,25,-156,158,-251,57,23.59,121358
-4,34,-263,-71,71,24,-155,161,-250,58,23.63,121445
-3,33,-264,-71,71,25,-155,158,-248,60,23.63,121532
0,24,-263,-70,71,26,-156,164,-226,58,23.53,121618
-4,33,-262,-70,72,25,-157,158,-252,59,23.57,121705
-8,37,-266,-70,71,24,-155,161,-249,60,23.75,121791
-1,27,-264,-70,71,25,-153,159,-248,59,23.71,121878
-9,35,-266,-71,71,27,-152,159,-246,59,23.71,121965
-13,-2,-264,-70,71,25,-153,163,-246,58,23.69,122051
-5,31,-262,-71,71,22,-154,160,-246,57,23.53,122138
-3,32,-263,-70,72,28,-153,158,-247,60,23.53,122225
-3,33,-261,-71,72,25,-154,155,-246,59,23.69,122311
-4,33,-262,-71,71,22,-157,158,-248,59,23.51,122398
-4,31,-265,-71,71,28,-155,158,-248,62,23.59,122484
-3,32,-261,-70,71,27,-156,157,-248,56,23.65,122571
-4,32,-265,-70,71,22,-152,159,-248,60,23.65,122658
-3,33,-264,-70,71,25,-153,159,-245,58,23.63,122744
-3,34,-263,-70,72,28,-155,157,-247,57,23.79,122831
-2,34,-253,-71,71,23,-154,157,-248,59,23.79,122918
-3,33,-261,-71,71,24,-155,158,-249,59,23.65,123004
-3,33,-261,-70,71,27,-155,159,-246,61,23.59,123091
-2,32,-261,-71,71,25,-153,160,-250,57,23.53,123177
-4,34,-260,-71,71,23,-157,160,-245,60,23.65,123265
-4,31,-265,-71,71,26,-155,157,-248,56,23.57,123352
-3,33,-263,-70,71,26,-153,162,-249,57,23.57,123438
-3,32,-258,-71,72,23,-155,159,-247,59,23.59,123525
-4,33,-261,-71,72,25,-154,161,-248,62,23.59,123612
-2,33,-264,-69,70,26,-155,162,-244,57,23.65,123698
-2,50,-260,-70,71,23,-175,263,-253,58,23.57,123785
1,37,-259,-70,71,25,-158,171,-189,56,23.59,123871
-2,33,-261,-70,71,27,-150,160,-245,58,23.79,123958
-7,62,-261,-71,72,24,-155,158,-248,62,23.63,124045
-11,19,-271,-70,71,23,-154,157,-246,56,23.57,124131
-7,21,-264,-70,70,28,-152,160,-245,61,23.51,124218
-2,76,-260,-71,71,26,-136,152,-248,59,23.51,124305
-1,34,-263,-71,71,23,-154,155,-246,60,23.69,124391
-3,31,-262,-70,71,24,-154,157,-250,57,23.57,124478
-3,34,-262,-70,71,29,-154,157,-248,60,23.59,124565
-3,32,-264,-70,71,23,-157,158,-247,57,23.51,124651
-3,33,-262,-71,71,23,-156,158,-250,60,23.53,124738
-4,33,-262,-71,71,29,-157,155,-249,57,23.53,124824
-2,34,-259,-71,71,25,-156,158,-248,59,23.53,124911
-5,32,-260,-70,71,22,-155,161,-248,57,23.57,124998
-3,32,-263,-70,71,27,-159,161,-248,62,23.57,125084
-1,32,-264,-70,71,27,-152,160,-252,57,23.57,125171
-4,33,-261,-71,70,21,-154,159,-250,58,23.59,125258
-3,32,-264,-70,71,25,-152,162,-248,56,23.53,125344
-3,33,-262,-70,71,29,-153,159,-248,60,23.53,125431
-3,32,-261,-71,71,22,-154,159,-248,60,23.53,125517
-3,33,-263,-70,72,24,-154,161,-248,57,23.63,125604
-3,33,-263,-70,72,27,-154,159,-251,57,23.63,125691
-2,32,-261,-72,71,25,-154,161,-247,59,23.63,125777
-5,32,-262,-70,72,23,-152,159,-249,62,23.57,125864
-4,33,-261,-70,72,26,-152,159,-245,60,23.59,125952
-3,33,-262,-70,71,26,-158,158,-248,59,23.53,126038
-2,32,-265,-71,71,24,-152,157,-251,58,23.65,126125
-4,34,-263,-71,71,24,-152,161,-248,60,23.59,126211
-2,33,-261,-70,71,27,-154,161,-247,58,23.59,126298
-1,31,-261,-71,71,25,-156,159,-250,58,23.65,126385
-3,33,-261,-70,72,23,-152,158,-248,61,23.65,126471
-4,32,-262,-71,72,26,-153,157,-249,58,23.57,126558
-2,32,-260,-70,71,26,-155,156,-247,55,23.63,126645
-4,33,-265,-70,72,24,-155,155,-247,59,23.63,126731
-3,34,-266,-71,71,25,-157,155,-250,59,23.75,126818
-1,32,-258,-68,71,26,-157,159,-250,59,23.51,126905
-3,35,-261,-70,72,24,-156,158,-251,60,23.69,126991
-3,32,-260,-70,71,24,-157,164,-250,57,23.57,127078
-2,33,-259,-70,71,26,-155,158,-246,60,23.57,127164
-3,33,-260,-70,72,25,-157,161,-249,63,23.59,127251
-3,33,-259,-70,72,24,-154,160,-247,60,23.59,127338
-3,32,-264,-71,72,26,-155,161,-246,60,23.69,127424
-2,32,-262,-71,71,26,-156,159,-249,60,23.59,127511
-4,31,-260,-70,71,25,-153,160,-248,57,23.47,127598
-3,32,-262,-71,72,25,-152,161,-246,62,23.47,127684
-2,32,-262,-70,72,26,-150,159,-249,56,23.63,127771
-3,31,-261,-70,71,24,-152,159,-247,60,23.63,127857
-3,32,-271,-72,71,24,-155,157,-253,57,23.53,127944
-5,33,-264,-71,73,26,-153,157,-248,59,23.57,128031
-2,35,-266,-71,70,25,-153,158,-249,59,23.51,128117
-3,34,-257,-71,72,25,-155,157,-247,59,23.47,128204
-2,32,-258,-70,71,25,-153,157,-247,57,23.53,128291
-3,33,-268,-71,72,25,-154,159,-249,57,23.47,128377
-4,33,-268,-69,71,25,-155,157,-249,59,23.59,128464
-2,31,-258,-71,73,25,-154,159,-249,62,23.59,128550
-3,32,-257,-72,71,25,-155,158,-247,58,23.41,128637
-2,32,-259,-69,72,25,-159,160,-248,63,23.47,128724
-3,35,-266,-71,72,25,-155,158,-249,62,23.51,128811
-2,33,-273,-70,70,26,-155,163,-250,55,23.57,128898
-4,32,-260,-69,71,24,-155,159,-249,58,23.45,128985
-4,35,-268,-72,71,25,-153,158,-248,62,23.59,129071
-3,32,-261,-71,70,26,-155,159,-251,60,23.51,129158
-4,33,-257,-69,71,24,-154,160,-248,58,23.47,129244
-3,33,-257,-69,72,25,-153,159,-251,60,23.47,129331
-2,33,-266,-70,72,25,-155,159,-249,59,23.57,129418
-2,33,-268,-70,72,26,-154,159,-250,60,23.53,129504
-2,33,-267,-71,72,24,-153,157,-250,61,23.53,129591
-3,32,-266,-71,71,25,-151,157,-248,57,23.57,129678
-3,32,-258,-72,72,25,-157,160,-247,57,23.53,129764
-4,34,-265,-70,71,24,-157,158,-249,59,23.57,129851
-3,33,-270,-71,70,24,-153,158,-247,62,23.51,129938
-3,33,-257,-71,71,25,-154,158,-249,60,23.51,130024
-3,31,-253,-69,72,26,-156,158,-248,59,23.59,130111
-3,32,-262,-72,71,25,-155,159,-248,60,23.59,130197
-3,33,-260,-71,72,25,-154,157,-248,60,23.53,130284
-2,32,-264,-70,71,26,-158,157,-249,59,23.47,130371
-4,33,-265,-71,71,25,-155,157,-250,60,23.53,130457
-4,33,-261,-70,71,25,-152,160,-250,57,23.57,130544
-2,33,-263,-71,71,26,-153,158,-249,55,23.53,130631
-2,34,-261,-71,71,25,-155,161,-249,59,23.53,130717
-2,32,-262,-69,72,25,-155,159,-248,58,23.53,130804
-4,33,-258,-69,72,25,-157,158,-251,59,23.59,130890
-4,32,-262,-70,72,26,-153,160,-251,55,23.45,130977
-4,33,-264,-71,72,24,-157,159,-249,57,23.51,131064
-4,33,-265,-70,71,25,-154,159,-248,57,23.53,131150
-2,33,-266,-71,72,25,-152,161,-250,57,23.45,131237
-3,33,-264,-70,71,25,-152,158,-245,59,23.51,131324
-3,34,-259,-69,71,25,-152,159,-248,59,23.51,131410
-3,33,-262,-71,72,25,-154,159,-248,61,23.63,131497
-2,32,-261,-70,71,25,-155,158,-248,56,23.51,131584
-2,32,-266,-70,71,25,-154,159,-249,59,23.57,131671
-6,34,-267,-70,71,25,-153,158,-250,58,23.65,131758
-2,32,-263,-72,72,24,-157,156,-249,55,23.57,131844
-4,32,-261,-71,71,25,-151,158,-246,59,23.59,131931
-3,34,-260,-71,72,25,-154,159,-250,60,23.57,132018
-4,33,-266,-70,71,25,-154,157,-250,55,23.57,132104
-4,32,-264,-71,71,25,-155,155,-248,57,23.65,132191
-3,32,-257,-71,72,24,-154,156,-248,57,23.59,132277
-2,33,-261,-71,71,26,-153,158,-247,60,23.63,132364
-2,33,-265,-70,72,24,-155,158,-250,60,23.65,132451
-3,33,-261,-71,71,25,-153,161,-250,61,23.69,132537
-4,32,-269,-70,71,25,-155,160,-248,58,23.75,132624
13,46,-286,-67,75,44,-151,160,-249,71,23.59,132711
-2,37,-254,-82,71,20,-155,160,-250,56,23.59,132797
-2,42,-247,-53,70,32,-153,159,-249,42,23.65,132884
-5,29,-269,-73,79,28,-157,160,-250,58,23.53,132971
-3,31,-270,-71,69,23,-156,159,-249,54,23.69,133057
-1,33,-257,-70,72,15,-153,159,-250,53,23.57,133144
-5,31,-263,-69,72,20,-153,158,-249,52,23.79,133230
-2,30,-265,-69,72,27,-153,157,-246,51,23.71,133317
-3,35,-268,-71,71,26,-155,159,-247,54,23.81,133404
-6,33,-263,-70,72,21,-152,158,-248,54,23.69,133490
-6,28,-311,-70,67,18,-148,157,-247,50,23.69,133577
1,39,-234,-117,70,35,-158,158,-247,49,23.65,133664
29,79,-162,-216,84,49,-151,157,-249,61,23.71,133750
4,38,-254,-67,76,27,-155,160,-248,55,23.79,133837
-5,36,-297,-83,77,24,-152,156,-249,55,23.75,133924
-4,31,-266,-59,64,37,-157,155,-246,52,23.57,134010
-8,28,-271,-68,72,2,-157,156,-247,54,23.79,134097
-9,32,-263,-64,70,26,-157,156,-248,51,23.65,134183
-5,32,-264,-71,68,24,-153,158,-251,54,23.65,134270
-7,27,-264,-84,78,15,-152,158,-251,54,23.71,134358
3,45,-269,-70,69,37,-154,162,-252,53,23.81,134444
-5,36,-258,-84,73,9,-151,162,-247,49,23.65,134531
-14,22,-272,-65,70,22,-151,158,-247,52,23.57,134618
-3,32,-269,-70,71,41,-153,160,-249,55,23.71,134704
2,41,-218,-81,71,25,-154,158,-249,52,23.59,134791
-4,37,-269,-52,73,20,-157,160,-250,53,23.71,134877
-11,18,-272,-106,75,12,-155,162,-249,55,23.71,134964
-4,31,-275,-79,72,32,-151,162,-247,51,23.71,135051
-7,34,-263,-39,69,20,-155,159,-248,54,23.57,135137
-7,26,-270,-62,69,21,-151,158,-247,55,23.63,135224
-4,28,-269,-68,70,24,-154,159,-250,54,23.65,135311
-3,31,-270,-69,71,28,-153,154,-249,60,23.75,135397
-3,34,-265,-71,72,26,-153,156,-250,55,23.57,135484
-3,34,-260,-70,71,23,-153,158,-248,57,23.47,135570
-4,34,-258,-72,71,26,-156,158,-249,55,23.47,135657
-5,33,-261,-71,71,21,-153,158,-247,54,23.69,135744
-1,32,-258,-70,71,24,-156,156,-248,55,23.65,135830
-8,33,-262,-72,72,16,-155,156,-247,54,23.63,135917
7,27,-281,-78,72,-22,-151,159,-246,54,23.59,136004
-9,31,-268,-69,69,30,-153,159,-250,52,23.63,136090
6,47,-258,-70,74,15,-151,157,-248,53,23.63,136177
1,8,-295,-55,79,-52,-150,156,-249,54,23.75,136263
5,68,-235,-52,66,88,-153,159,-246,55,23.75,136350
-8,47,-209,0,55,39,-159,159,-245,54,23.65,136437
-38,19,-340,176,-121,-97,-166,161,-239,48,23.71,136523
-54,9,-264,123,-539,-358,-174,167,-210,46,23.57,136610
-76,32,-235,35,-643,-669,-180,174,-177,45,23.69,136697
-46,-17,-263,98,-666,-857,-176,180,-110,42,23.79,136784
-81,-14,-213,-211,-590,-817,-170,184,-77,43,23.79,136871
-83,-5,-239,-455,-402,-854,-158,183,-52,46,23.69,136957
-102,-2,-236,-545,-361,-642,-115,174,-11,49,23.81,137044
-93,13,-271,-393,-302,-536,-103,172,12,49,23.81,137132
-96,6,-237,88,43,-214,-106,173,20,46,23.75,137218
-131,-4,-238,497,233,-140,-131,175,14,42,23.79,137305
-102,-20,-234,25,-75,-170,-155,174,12,42,23.75,137392
-121,-14,-261,-477,-286,-121,-143,173,29,57,23.75,137479
-139,-9,-246,-738,-519,-91,-113,164,54,86,23.71,137565
-193,3,-272,-723,-564,-20,-56,141,108,150,23.79,137652
-198,10,-267,-597,-379,18,-36,130,131,314,23.87,137739
-191,30,-232,-532,-56,89,-8,123,137,418,23.87,137826
-177,36,-234,-374,147,48,4,118,135,405,23.87,137912
-144,34,-205,-241,309,-26,27,117,118,403,23.85,137999
-146,40,-202,-127,378,-200,29,125,107,392,23.91,138086
-129,35,-186,-70,332,-354,22,129,100,381,23.87,138173
-140,32,-180,-108,211,-384,11,130,97,379,23.93,138260
-152,45,-188,-144,55,-414,12,127,103,371,23.93,138347
-156,41,-189,-194,-129,-481,11,126,116,361,24.17,138433
-138,45,-173,-359,-170,-509,8,120,132,352,24.29,138520
-133,53,-164,-540,-125,-468,24,100,161,310,24.29,138607
-172,43,-192,-604,-110,-598,30,91,179,298,24.27,138694
-172,34,-209,-798,-109,-825,41,78,198,324,24.15,138781
-156,16,-188,-911,-108,-697,62,44,233,318,24.17,138867
-187,14,-201,-833,-40,-598,70,25,252,321,24.15,138954
-171,18,-183,-664,48,-548,82,12,261,325,24.27,139041
-187,4,-182,-611,169,-481,84,0,272,327,24.35,139128
-178,12,-181,-645,288,-392,92,-10,276,335,24.29,139214
-194,15,-193,-616,293,-373,101,-14,278,345,24.29,139301
-179,25,-202,-563,147,-370,104,-21,279,359,24.39,139388
-189,41,-189,-551,15,-438,108,-41,297,373,24.35,139475
-173,55,-188,-667,92,-402,114,-52,304,392,24.35,139563
-170,55,-181,-598,136,-431,112,-65,315,414,24.51,139650
-152,59,-172,-533,271,-404,109,-71,325,445,24.53,139737
-161,60,-168,-494,317,-407,108,-73,326,473,24.47,139823
-166,56,-187,-389,195,-478,98,-70,332,507,24.45,139910
-167,37,-194,-320,-55,-483,87,-78,342,539,24.45,139997
-193,35,-208,-296,-282,-500,64,-104,377,575,24.45,140084
-197,30,-200,-463,-182,-418,54,-121,392,632,24.51,140171
-201,36,-206,-512,28,-468,44,-131,404,697,24.45,140257
-167,41,-183,-575,250,-384,30,-134,409,791,24.59,140344
-177,20,-184,-526,338,-281,30,-129,408,953,24.39,140431
-182,23,-180,-436,327,-243,28,-125,403,1125,24.47,140518
-169,23,-173,-428,341,-272,23,-122,410,0,24.41,140605
-151,32,-173,-475,296,-253,19,-112,403,0,24.39,140692
-137,43,-188,-522,383,-174,22,-106,395,0,24.45,140778
-130,58,-181,-420,455,-180,26,-104,388,1936,24.45,140865
-146,59,-215,-207,494,-167,21,-75,378,0,24.11,140952
-150,37,-221,227,305,-188,5,-60,372,0,24.09,141039
-117,52,-191,133,397,0,-7,-49,368,673,24.09,141125
-117,73,-190,-25,547,107,-6,-36,356,599,23.97,141212
-121,64,-196,13,454,130,-2,-5,325,552,24.03,141299
-95,48,-200,-48,347,215,-2,3,312,567,24.03,141385
-113,27,-218,-292,215,358,13,11,300,0,24.03,141472
-128,31,-236,-233,-145,286,41,-8,304,0,23.93,141559
-153,42,-256,-131,-497,92,45,-30,315,0,23.93,141645
-175,49,-292,-149,-595,-65,44,-54,337,0,24.03,141732
-206,36,-284,-383,-275,-158,47,-76,353,1951,23.93,141819
-172,61,-239,-539,180,-172,53,-93,363,1924,23.99,141906
-131,70,-212,-386,384,-105,51,-87,353,1868,23.97,141993
-128,68,-199,-123,468,-46,54,-76,352,1868,23.91,142080
-131,76,-224,-1,502,108,54,-50,324,1926,23.93,142167
-115,63,-229,53,351,147,54,-36,313,1935,24.03,142254
-112,68,-234,-86,305,179,59,-28,303,1916,24.03,142341
-113,57,-215,-77,256,94,64,-26,292,1921,23.85,142427
-100,63,-223,-34,171,-58,63,-19,283,1875,23.99,142514
-84,123,-474,209,445,-80,53,-11,282,1895,23.93,142601
-86,43,-243,278,613,54,40,7,262,177,24.03,142688
-77,31,-243,557,685,111,6,53,214,83,23.87,142774
-66,47,-510,115,741,283,7,71,184,76,23.97,142861
-92,54,-381,31,594,275,15,83,159,67,23.87,142948
-28,7,-262,8,563,211,12,98,115,57,23.91,143034
-5,30,-259,-6,372,187,15,105,97,55,23.91,143121
14,23,-155,-172,157,102,18,102,92,57,23.81,143207
11,28,-253,-118,95,-28,17,103,91,63,23.85,143294
-10,38,-310,-89,95,-34,17,106,91,60,24.05,143381
-6,34,-255,-78,88,-142,12,110,93,59,23.81,143467
-11,41,-262,-88,102,-232,9,107,97,60,23.79,143554
22,18,-221,-99,-1,-1,2,110,97,59,23.81,143640
4,29,-231,-61,71,57,2,106,99,58,23.85,143727
-5,32,-265,-73,73,11,2,108,94,63,23.81,143813
-6,32,-244,-82,64,30,5,109,96,62,23.81,143900
-4,35,-355,-77,72,32,4,108,96,63,23.85,143986
-2,24,-268,-71,68,17,2,107,94,60,24.05,144072
-9,33,-262,-70,72,29,3,108,97,58,23.87,144159
-2,31,-289,-71,72,30,2,103,96,59,23.91,144245
-9,34,-306,-69,72,20,5,105,98,58,23.85,144332
-2,27,-244,-65,71,27,6,106,99,61,23.93,144418
-2,29,-278,-75,71,30,6,105,95,59,23.75,144505
-2,30,-250,-74,72,22,6,103,96,61,23.75,144591
-5,32,-267,-70,71,25,10,105,98,61,23.81,144678
-6,33,-274,-70,71,30,5,105,100,58,23.79,144764
-6,32,-271,-71,72,23,7,107,96,63,23.81,144851
-6,32,-264,-70,72,23,8,104,96,64,23.79,144937
-6,33,-259,-71,72,28,8,106,97,60,23.87,145025
-4,33,-263,-70,71,25,7,105,96,57,23.79,145111
-6,31,-263,-71,71,23,8,107,96,59,23.85,145198
-5,32,-266,-70,71,28,6,110,95,60,23.85,145284
-4,33,-263,-72,71,26,7,108,96,62,23.75,145371
-6,32,-260,-71,71,22,3,107,95,56,23.81,145457
-5,31,-265,-71,71,26,3,107,98,55,23.85,145543
-6,32,-267,-70,72,26,3,108,95,59,24.03,145630
-5,32,-263,-71,71,24,1,107,99,57,23.81,145716
-5,32,-259,-71,72,26,4,105,97,59,23.85,145803
-5,33,-265,-71,71,27,1,106,95,59,23.97,145889
-6,32,-260,-71,72,25,0,109,99,58,23.85,145976
-5,32,-262,-71,71,25,1,105,94,57,23.85,146062
-4,32,-266,-70,71,27,4,106,94,58,23.85,146149
-4,31,-261,-71,71,25,4,105,95,56,24.09,146235
-6,32,-262,-71,71,24,4,104,98,59,23.91,146322
-6,33,-263,-70,70,27,5,107,97,60,23.87,146408
-4,32,-260,-71,71,26,7,105,95,56,23.87,146495
-4,32,-260,-71,72,25,9,103,94,54,23.87,146581
-5,32,-262,-71,71,26,5,107,94,62,23.81,146667
-4,33,-263,-70,71,26,8,104,93,60,23.81,146754
-6,32,-262,-70,71,24,8,104,95,59,23.87,146840
-5,31,-260,-70,71,25,10,102,95,62,23.75,146927
-4,32,-265,-71,71,26,7,107,95,60,23.81,147013
-5,32,-268,-70,71,24,5,108,97,56,23.81,147100
-6,34,-265,-71,71,25,8,107,97,59,23.81,147186
-6,33,-260,-71,71,27,8,107,94,58,23.79,147273
-4,32,-261,-71,71,26,3,107,97,61,23.75,147359
-5,32,-263,-71,71,25,3,108,98,56,23.85,147446
-5,34,-263,-70,71,26,4,109,96,59,23.85,147532
-7,32,-265,-69,71,25,3,108,99,60,23.85,147619
-4,32,-261,-70,71,26,2,106,97,60,23.81,147705
-4,31,-261,-71,71,26,-2,108,98,59,23.85,147792
-5,31,-262,-70,71,26,1,110,96,60,23.85,147878
-4,30,-262,-70,71,25,4,108,94,56,23.81,147964
-5,32,-260,-70,71,25,4,103,95,58,23.75,148051
-6,33,-262,-71,71,26,6,105,96,61,23.81,148137
-4,31,-263,-70,71,25,4,103,95,57,23.81,148225
-5,31,-261,-71,71,25,2,104,93,60,23.69,148311
-4,31,-264,-71,71,26,7,103,94,61,23.81,148398
-5,32,-260,-70,71,25,6,103,97,61,23.75,148484
-5,32,-263,-71,72,25,8,106,98,62,23.87,148571
-5,32,-263,-71,72,25,8,104,97,61,23.65,148657
-5,32,-262,-70,71,26,9,107,95,60,23.79,148744
-5,33,-261,-70,72,25,8,103,94,60,23.87,148830
-6,32,-263,-70,71,26,8,108,95,61,23.87,148917
-4,33,-263,-71,71,25,6,109,96,59,23.85,149003
-4,31,-261,-72,71,25,7,107,94,58,23.75,149090
-5,34,-262,-71,71,25,5,108,98,59,23.59,149176
-7,33,-268,-71,72,25,5,110,97,60,23.85,149262
-4,32,-260,-71,72,26,3,108,98,61,23.79,149349
-4,32,-257,-71,71,25,2,108,99,59,23.71,149435
-5,32,-263,-71,72,25,2,103,98,60,23.71,149522
-6,32,-263,-70,71,25,3,109,98,61,23.69,149608
-4,33,-257,-70,71,25,1,108,95,60,23.69,149695
-5,32,-264,-70,71,25,3,107,98,58,23.71,149781
-5,33,-265,-71,71,25,2,106,96,60,23.75,149868
-6,33,-263,-70,71,25,2,104,97,65,23.75,149954
-6,32,-261,-70,71,25,6,103,92,56,23.75,150041
-6,33,-261,-70,71,25,5,104,97,59,23.71,150127
-6,32,-261,-71,71,26,5,103,98,58,23.65,150214
-5,32,-264,-69,71,25,8,107,95,58,23.75,150300
-5,31,-263,-71,71,25,11,104,94,63,23.75,150387
-4,31,-259,-70,71,26,5,104,97,62,23.71,150473
-5,32,-261,-70,71,26,11,106,97,60,23.81,150559
-6,32,-260,-71,71,26,10,105,95,57,23.81,150646
-5,32,-264,-70,72,25,9,108,97,60,23.75,150732
-3,31,-260,-71,71,25,5,107,97,59,23.59,150819
-5,33,-264,-70,71,25,5,105,98,61,23.79,150905
-5,32,-261,-71,71,25,1,106,98,59,23.65,150992
-4,33,-264,-70,71,25,2,107,95,59,23.65,151078
-6,32,-264,-71,71,26,3,108,94,59,23.63,151165
-4,32,-262,-70,71,25,4,110,98,59,23.69,151251
-5,31,-263,-70,72,26,1,106,98,60,23.69,151339
-4,32,-263,-70,72,25,1,108,97,60,23.71,151425
-6,32,-260,-71,71,26,0,107,97,61,23.71,151512
-4,33,-261,-70,71,25,5,105,97,61,23.71,151598
-5,31,-263,-71,71,25,5,108,97,56,23.71,151685
-5,31,-263,-70,71,25,6,105,95,58,23.71,151771
-5,32,-265,-70,71,25,5,107,97,60,23.63,151857
-4,32,-262,-71,71,26,8,104,99,62,23.69,151944
-5,32,-263,-70,71,25,7,106,96,59,23.63,152030
-5,32,-259,-70,71,26,9,104,97,63,23.65,152117
-5,33,-261,-70,71,25,7,105,98,62,23.71,152203
-5,32,-262,-70,71,25,8,101,94,62,23.57,152290
-6,33,-262,-70,71,25,10,103,94,61,23.69,152376
-5,32,-262,-71,71,26,9,106,97,57,23.69,152463
-6,32,-262,-70,71,26,5,106,97,58,23.63,152549
-6,32,-263,-70,70,25,7,108,97,61,23.71,152636
-5,31,-262,-71,71,26,7,105,97,60,23.69,152722
-5,32,-262,-71,71,25,4,109,98,61,23.71,152809
-6,33,-264,-70,71,25,4,105,96,60,23.65,152895
-6,31,-263,-71,71,26,3,107,97,60,23.65,152982
-6,32,-263,-70,71,26,3,109,93,59,23.71,153068
-6,32,-262,-69,71,26,1,108,97,59,23.71,153155
-6,33,-258,-70,71,26,-1,110,96,58,23.69,153241
-6,31,-263,-71,71,25,2,106,97,58,23.71,153327
-6,33,-261,-71,72,25,0,109,97,61,23.65,153414
-6,32,-262,-71,71,25,-1,107,94,61,23.59,153500
-6,32,-262,-70,71,26,4,106,98,61,23.65,153587
-4,35,-244,-67,74,25,5,104,94,60,23.71,153673
-4,29,-309,-75,71,25,7,102,95,63,23.59,153760
-5,31,-234,-67,73,25,8,105,96,61,23.59,153846
-2,33,-267,-69,70,25,9,105,95,62,23.63,153933
-6,31,-273,-71,72,25,8,103,98,60,23.75,154019
-3,33,-260,-70,71,25,7,104,97,61,23.65,154106
-6,31,-269,-70,71,26,9,106,96,59,23.63,154192
-5,31,-265,-70,71,26,6,105,96,58,23.65,154279
7,39,-271,-75,71,28,15,178,137,60,23.65,154365
-14,27,-260,-70,72,25,37,54,52,61,23.81,154452
7,34,-265,-71,71,23,-8,153,87,59,23.81,154539
0,33,-267,-70,71,29,-16,103,83,57,23.63,154626
3,37,-259,-68,72,27,-52,147,137,57,23.63,154712
-12,37,-272,-70,71,25,29,-70,83,60,23.63,154799
-24,15,-233,-59,72,25,-10,96,89,63,23.59,154885
16,16,-314,-74,70,27,27,55,61,59,23.53,154972
64,26,-239,-65,71,29,-28,167,159,61,23.57,155058
16,38,-240,-72,71,24,-33,167,73,58,23.59,155145
22,35,-338,-45,65,29,11,52,109,58,23.59,155231
-2,15,-482,-41,72,23,31,-59,73,58,23.53,155318
-85,78,-122,-98,70,18,-20,30,122,62,23.59,155404
19,0,-353,-39,71,22,-1,49,100,61,23.53,155491
-97,69,34,-37,70,5,-4,129,100,59,23.53,155577
-102,77,-223,-28,59,-6,53,87,113,60,23.57,155664
-47,37,-491,-98,84,-23,-4,10,156,61,23.59,155751
-73,74,-505,-39,71,-18,-30,40,90,65,23.47,155837
-59,-31,-512,-60,75,-38,-8,134,39,62,23.47,155924
85,37,-409,-83,93,-30,4,-97,105,62,23.47,156010
-41,16,-143,-35,68,-8,-29,128,191,60,23.51,156097
-32,66,-376,10,77,-29,12,42,118,60,23.53,156183
9,121,-512,11,62,-54,26,-10,78,57,23.51,156270
-91,19,198,-5,33,-59,-53,149,105,63,23.45,156356
-67,63,-512,-157,97,-35,-39,150,130,64,23.51,156443
84,98,222,-1,43,-43,-52,-130,239,60,23.53,156530
70,-7,187,-53,86,-9,8,226,26,59,23.51,156616
170,-32,168,-127,80,65,-28,-47,155,56,23.51,156703
-19,-10,-158,-130,46,110,18,-91,144,63,23.57,156789
-165,-6,-222,6,57,118,14,12,99,58,23.53,156876
-269,4,-182,-37,50,164,18,-87,99,56,23.53,156962
101,37,-101,-40,81,223,6,83,54,55,23.47,157049
113,112,112,-71,94,232,6,35,59,56,23.51,157136
-75,57,-512,-37,81,218,53,1,-13,52,23.51,157222
-73,80,-512,93,73,207,-31,37,138,52,23.47,157309
-165,32,-482,59,42,227,-4,56,37,46,23.47,157395
-82,70,-271,82,-3,248,-34,-28,162,44,23.51,157483
-103,61,-507,173,18,265,-24,117,13,43,23.51,157569
54,35,-414,-6,72,306,-2,-24,140,32,23.57,157656
-52,0,-78,-149,94,355,-1,79,118,45,23.47,157743
140,57,-37,-205,67,344,-44,186,56,51,23.57,157829
-19,66,-225,-272,86,348,45,129,-20,58,23.47,157916
-46,-68,-357,-120,103,334,32,-90,168,59,23.47,158003
-134,10,-49,72,11,319,-32,10,111,53,23.47,158089
-33,-14,-94,71,-1,317,42,14,98,47,23.33,158176
34,54,-250,102,133,329,35,-17,67,48,23.35,158262
59,46,-294,-36,203,362,30,-35,72,47,23.47,158349
97,40,4,66,99,333,38,20,77,48,23.45,158435
-59,74,-16,102,32,331,-92,62,33,43,23.53,158522
-121,46,-345,-61,8,332,-27,69,82,43,23.53,158608
-2,-14,-512,-113,8,331,58,1,62,44,23.53,158695
50,89,-30,-131,-62,316,10,52,124,42,23.53,158781
63,72,-393,-142,-33,312,-36,9,96,47,23.41,158868
-71,20,139,-137,154,254,4,-47,115,47,23.41,158955
16,46,28,-72,217,178,-58,-40,87,47,23.35,159041
45,-23,-319,47,161,95,15,-24,67,51,23.47,159128
10,-38,-264,-45,213,33,28,-18,79,50,23.45,159214
-60,31,-259,-85,114,-37,29,1,43,56,23.45,159301
123,61,-512,-133,58,-86,-17,77,27,66,23.45,159388
60,44,-395,-212,-144,-146,-34,16,107,79,23.45,159474
-153,67,-512,-330,-275,-208,47,-169,21,94,23.35,159561
80,139,-140,-147,-349,-285,33,-7,138,99,23.45,159648
110,-5,-30,-145,-291,-318,-17,16,148,100,23.53,159734
-72,-49,-512,-30,-46,-331,-24,-16,178,96,23.57,159821
156,72,-58,-167,391,-298,45,-50,172,106,23.47,159908
15,13,-512,-196,627,-288,19,50,194,112,23.47,159995
70,-35,-439,-83,484,-347,23,-15,159,109,23.33,160081
-140,61,-195,-121,208,-398,-18,-31,97,115,23.33,160168
137,-30,281,-424,13,-423,82,-12,105,167,23.35,160256
-56,6,-512,-336,-39,-438,64,29,149,177,23.29,160343
-15,103,-69,57,383,-395,51,7,92,97,23.35,160429
-74,30,-400,61,365,-376,52,-23,202,76,23.21,160516
-12,-27,249,40,115,-384,47,62,141,69,23.35,160602
-98,11,43,-190,-33,-399,-24,37,214,68,23.27,160689
-32,38,-512,-45,22,-416,-3,97,126,55,23.23,160776
32,8,-512,-5,216,-384,17,6,179,53,23.27,160862
36,30,154,-67,282,-372,36,35,164,58,23.27,160949
-176,40,-250,1,249,-415,-50,33,176,57,23.11,161035
-3,-6,-512,80,142,-505,-149,15,203,50,23.21,161122
-17,31,-440,54,13,-568,-131,60,189,49,23.17,161209
-40,29,-348,-68,83,-595,-155,70,255,57,23.09,161295
27,35,-295,-209,44,-547,-60,14,175,70,23.17,161382
-56,-7,-95,-384,-251,-496,-128,44,144,75,23.21,161469
-141,-43,155,-394,-169,-363,-73,177,156,84,23.15,161556
-137,-85,78,-113,463,-209,-77,70,167,68,23.15,161642
173,66,38,34,13,-200,-124,44,158,64,23.05,161729
159,126,-456,-142,65,-132,-105,39,152,71,22.93,161816
-112,33,-26,-61,54,-82,-122,-30,187,65,22.95,161902
162,121,-358,-109,68,-66,-80,17,182,70,23.11,161989
10,48,-237,-91,-46,-50,-131,-66,192,75,23.23,162076
-135,30,-302,-161,-166,-46,-122,9,221,78,23.03,162162
-61,32,-311,13,-401,-24,-99,89,175,83,22.99,162249
9,98,-310,-153,-513,14,-117,71,199,87,22.99,162336
-8,67,121,-94,-460,52,-100,36,207,93,23.09,162422
-217,-23,-234,-111,-279,97,-49,-41,250,99,22.95,162509
-45,92,-171,31,-84,144,-150,43,258,104,22.99,162596
127,44,33,-8,54,216,-71,-5,266,97,23.03,162682
-28,75,80,-3,149,339,-89,-121,346,95,23.09,162769
-241,-21,-257,52,258,460,-100,17,364,93,23.03,162856
32,66,370,102,341,559,-82,27,245,84,22.95,162942
101,116,-287,130,631,637,-95,18,213,76,22.95,163030
36,97,271,75,654,693,-87,13,204,71,23.09,163117
-65,-11,-508,111,409,716,-52,74,267,67,23.17,163203
-121,59,-142,-53,-19,678,5,34,138,65,23.17,163290
58,179,-388,-62,-451,619,-99,71,254,73,23.23,163377
-63,-2,-77,78,-678,590,-77,-7,248,78,23.29,163463
77,50,-367,192,-462,589,-40,-30,238,83,23.33,163550
123,23,-9,156,38,607,-29,-20,292,89,23.41,163637
-175,-2,-499,141,421,611,10,51,246,103,23.41,163723
-65,21,-512,32,413,572,14,-47,264,131,23.29,163810
-103,23,-132,-175,321,523,-18,-6,174,185,23.23,163897
-61,89,-248,-193,305,477,1,74,155,251,23.29,163983
2,40,-428,-232,305,458,31,11,170,333,23.27,164070
-1,29,-439,-108,80,398,17,-7,104,363,23.29,164157
-21,110,-158,24,-148,346,9,-13,168,312,23.17,164243
231,7,-412,59,-232,285,9,4,144,289,23.29,164330
29,102,-69,-46,-26,284,-3,-8,154,295,23.29,164417
-4,-1,-417,-60,141,255,33,3,158,336,23.29,164503
-2,91,-281,-105,167,212,54,-65,167,378,23.23,164590
129,-21,158,-123,141,170,34,-19,116,459,23.17,164677
93,-22,-207,-244,81,113,26,-11,98,482,23.23,164763
-8,58,-512,-279,-1,-1,89,-69,115,495,23.21,164850
-37,-18,-316,-173,194,18,-3,15,76,504,23.35,164937
173,82,62,-55,263,-40,48,5,122,532,23.21,165023
-44,-32,-301,-104,297,-67,97,-94,97,555,23.27,165110
-141,0,56,-203,288,-100,-26,-27,95,587,23.27,165196
60,83,-512,-131,385,-132,69,-21,113,623,23.21,165283
-68,43,-203,164,495,-170,95,10,38,427,23.17,165370
7,32,-152,370,484,-216,13,-12,-101,255,23.17,165457
30,5,187,332,360,-245,13,28,19,196,23.33,165543
41,-9,18,97,-35,-312,-14,15,65,187,23.35,165630
-23,32,-512,-247,-547,-378,-22,60,50,202,23.27,165718
-58,51,-339,-428,-936,-449,-56,-37,202,221,23.27,165804
128,116,127,-269,-839,-458,-35,32,209,198,23.27,165891
179,53,28,7,-237,-439,19,-59,141,129,23.33,165978
54,120,-433,359,450,-393,-71,-1,222,85,23.23,166065
55,40,-478,229,860,-343,-78,-4,194,65,23.27,166151
-208,-23,-235,-129,521,-333,-41,-3,177,55,23.27,166238
-105,-39,158,-329,-121,-324,-48,68,136,44,23.23,166325
-148,191,-512,-563,185,-245,-27,-28,207,72,23.33,166412
-122,42,-512,-624,389,-157,-64,14,201,83,23.21,166498
-24,40,-226,151,198,-219,-70,25,243,56,23.21,166585
-54,68,-245,232,-154,-213,-127,120,137,60,23.35,166672
93,-4,-136,-102,-175,-196,-33,28,218,87,23.33,166758
106,40,148,-419,92,-127,-45,-120,196,265,23.27,166845
-165,43,-482,-572,350,-83,-88,194,215,1650,23.17,166932
139,78,-411,-325,398,-100,-1,-37,150,1650,23.27,167019
-212,20,84,-130,232,-145,-20,3,152,1646,23.17,167106
24,43,-512,-5,125,-186,-58,-80,198,1616,23.17,167192
68,47,-458,108,87,-188,-61,24,179,1591,23.17,167279
-27,8,122,134,212,-167,41,64,37,0,23.23,167366
-30,-17,-512,201,297,-141,-110,-48,233,0,23.21,167452
72,11,121,130,236,-106,-84,17,193,0,23.21,167539
-99,32,-79,-75,-1,-105,-51,102,125,0,23.29,167626
-166,0,-213,-311,-253,-84,-73,-62,123,1156,23.21,167712
75,74,-366,-191,-311,-59,-46,-202,183,1145,23.17,167799
31,-35,-330,97,-85,-26,-77,-31,202,0,23.21,167886
71,-7,10,161,137,18,-158,63,243,471,23.29,167972
-35,32,-512,124,213,39,-103,22,212,396,23.29,168059
-89,14,-220,75,18,44,-140,-20,217,401,23.29,168146
-223,-38,214,-180,-62,49,-32,217,23,476,23.23,168232
86,70,-187,-228,-26,78,-43,22,183,0,23.29,168320
-164,38,-64,-60,90,100,-115,50,227,0,23.27,168407
26,17,-447,17,233,128,-77,139,140,538,23.35,168493
-12,-4,-273,153,233,143,-90,-73,219,464,23.35,168580
-118,6,-512,191,81,148,-89,25,129,424,23.33,168667
-51,38,140,3,-31,156,-52,-1,157,444,23.33,168753
227,5,-302,-108,-11,166,-12,-143,179,470,23.27,168840
174,74,-512,-147,97,193,-83,-34,212,499,23.33,168927
-81,-15,89,-73,139,205,-143,64,191,520,23.33,169014
81,26,-435,-120,116,218,-80,20,170,596,23.27,169100
144,69,-284,-272,87,242,-160,103,165,0,23.29,169187
-33,-19,-512,-235,2,254,-114,28,191,793,23.33,169274
217,33,-341,-49,-44,265,-84,40,162,765,23.23,169361
59,57,78,209,54,266,-25,-100,180,631,23.23,169447
-123,-23,-512,224,101,274,5,79,93,564,23.29,169534
-66,28,-281,-15,111,285,-15,40,187,604,23.39,169621
-32,-25,-512,-328,24,296,-34,-88,203,0,23.29,169707
-14,-51,-169,-436,-32,300,-57,4,178,0,23.29,169794
108,6,-188,-379,2,310,77,63,69,1552,23.35,169880
88,90,-299,-264,49,317,68,-37,82,1565,23.35,169967
23,-12,54,-262,107,327,-15,179,92,1565,23.45,170054
-130,2,-361,-154,184,335,-8,2,125,1563,23.45,170141
-31,22,-512,-169,271,346,102,-105,136,1525,23.39,170228
-68,-6,7,-113,341,341,138,-144,155,0,23.45,170314
-60,8,-512,7,288,330,14,-20,134,0,23.35,170401
-33,86,-451,146,164,310,28,-21,70,0,23.35,170487
-159,-20,-176,245,-69,298,16,3,138,0,23.35,170574
162,31,-512,224,-275,276,-16,146,23,0,23.41,170661
-84,55,3,206,-360,244,-36,-17,110,0,23.29,170747
-87,56,-158,128,-320,213,32,-19,175,703,23.29,170834
73,5,-310,22,-175,213,-56,95,193,683,23.29,170920
-147,-15,-372,-75,30,197,-59,37,176,745,23.29,171008
74,-53,-102,-217,147,155,-30,41,172,816,23.27,171095
-123,97,-438,-270,303,120,64,72,147,786,23.29,171182
-115,64,58,-365,431,89,73,26,92,792,23.29,171268
75,6,-287,-341,419,42,15,33,47,0,23.41,171355
-71,61,-366,-128,259,-27,92,4,106,0,23.35,171441
13,-4,-251,56,61,-99,5,41,114,807,23.39,171528
94,50,-123,166,-97,-165,23,43,144,0,23.39,171615
-131,40,-431,74,-173,-211,34,19,112,859,23.57,171701
155,53,-86,68,-273,-249,54,33,162,0,23.27,171788
112,48,-448,-47,-370,-290,27,42,156,0,23.27,171875
-30,27,-327,-142,-358,-292,18,-17,167,756,23.39,171961
138,84,-311,-223,-174,-260,-16,5,225,0,23.33,172048
66,82,-512,-347,91,-210,63,-111,233,0,23.33,172135
202,120,30,-400,347,-121,-12,1,279,0,23.33,172221
49,92,-141,-357,379,-79,135,-202,210,0,23.33,172308
119,74,35,-252,331,-69,29,46,97,0,23.33,172395
-171,-17,14,-273,255,-72,94,147,100,0,23.29,172481
134,139,-475,-41,174,-62,71,16,127,1358,23.39,172568
263,28,-139,3,73,-67,48,-7,166,1389,23.41,172655
-37,120,-264,23,49,-40,77,-157,203,1409,23.39,172741
111,75,-7,-43,33,-14,-58,222,115,1403,23.51,172828
-44,18,175,-258,122,39,-22,76,163,1414,23.45,172915
-80,101,-463,-262,168,37,110,-13,152,1425,23.45,173002
8,-42,47,-220,123,39,57,25,91,1440,23.29,173088
-102,-2,-512,-98,136,50,104,-52,146,1438,23.27,173175
132,75,-263,297,215,50,160,-53,100,1428,23.35,173262
81,-7,-292,421,265,81,-33,-21,179,0,23.17,173348
-157,39,-373,298,223,86,27,18,140,0,23.23,173435
8,-52,6,81,141,97,13,-5,81,0,23.27,173521
167,65,101,-59,28,105,-21,78,103,0,23.11,173608
-36,29,-192,-187,-33,96,39,-24,127,0,23.11,173696
-150,61,-258,-68,-127,111,-21,49,48,0,23.27,173782
-147,2,-353,50,-20,124,17,-14,91,703,23.21,173869
117,146,-88,128,11,136,-32,53,180,630,23.21,173956
-104,-8,-512,-41,75,174,-66,70,162,606,23.23,174042
-13,6,-151,-37,105,154,-29,25,184,579,23.21,174129
-136,22,-426,-38,111,119,-12,72,101,582,23.21,174216
-76,35,-290,-64,154,94,-51,37,112,632,23.21,174302
71,72,-512,-2,-258,-258,17,19,96,0,23.21,174389
-161,102,106,-391,262,30,22,2,134,0,23.17,174475
35,79,-64,-352,315,-2,-6,44,98,0,23.17,174562
-50,42,-257,-281,330,-27,108,-5,73,0,23.17,174648
6,-31,-512,-170,253,-65,90,-40,75,0,23.21,174735
-98,-65,317,70,86,-100,15,126,99,0,23.35,174822
20,-5,-362,194,-140,-151,-27,39,71,0,23.33,174908
3,-19,103,114,-294,-161,46,32,47,0,23.23,174995
-124,-23,11,185,-385,-166,-9,85,105,605,23.33,175081
-31,-49,-221,125,-414,-159,-47,81,194,507,23.33,175168
27,74,-127,84,-397,-156,-3,-110,239,459,23.35,175255
-218,-11,-411,40,-311,-150,-106,70,207,422,23.33,175342
25,33,-214,-2,-121,-123,-61,-38,251,387,23.29,175428
-62,88,-512,-56,109,-98,-75,52,268,363,23.27,175515
8,81,-512,-23,340,-69,-58,148,208,340,23.35,175602
19,124,-79,-157,465,-48,-20,18,200,356,23.41,175688
-53,3,-337,-313,451,-50,-22,-20,173,443,23.33,175775
15,111,165,-544,320,-44,-59,-44,164,0,23.33,175862
44,16,-421,-606,191,-68,21,-1,144,0,23.27,175948
-10,58,-132,-529,62,-76,-12,3,220,1439,23.23,176035
-79,67,-508,-536,51,-59,78,-8,135,1438,23.33,176122
69,154,-381,-334,129,-62,31,199,142,0,23.27,176208
88,106,249,-262,230,-58,71,104,119,0,23.45,176295
-156,61,-494,-170,209,-64,41,122,166,0,23.35,176382
33,110,-112,-76,88,-79,105,50,207,0,23.29,176468
36,10,-161,-1,-41,-98,23,95,168,0,23.29,176556
83,144,-476,-86,-41,-99,47,-70,268,1440,23.23,176643
-89,10,-252,-135,2,-87,65,-32,206,1424,23.27,176729
194,24,-279,-90,-2,-86,134,-183,263,1428,23.29,176816
-19,39,-471,131,86,-74,146,-25,135,1383,23.27,176903
85,33,-463,499,84,-89,-20,-10,244,1381,23.33,176989
7,-11,4,506,114,-94,15,-46,243,670,23.21,177076
103,46,-86,394,33,-83,-21,-34,223,489,23.33,177163
-113,75,-341,38,6,-86,-106,1,273,459,23.33,177249
-33,1,4,-49,43,-68,-107,-87,281,457,23.23,177336
241,162,-512,45,146,-43,-98,8,264,400,23.33,177423
-70,16,18,145,216,-17,-88,219,97,342,23.15,177509
137,95,-205,174,185,-2,-109,119,111,313,23.23,177596
35,48,-512,-5,123,19,-165,232,186,312,23.35,177683
40,-5,-512,-44,72,50,-157,52,233,330,23.21,177769
-109,-6,-78,-201,113,57,-38,47,241,356,23.21,177856
225,95,-164,-177,180,99,-19,25,145,382,23.21,177943
-6,31,-512,-86,214,110,-123,72,178,375,23.17,178029
81,-32,-224,35,90,125,-61,22,203,354,23.21,178116
-75,98,-257,60,-79,109,-100,63,146,327,23.17,178203
73,94,-55,-25,-142,150,-84,49,175,321,23.15,178289
-35,104,-63,-15,-95,187,-108,-84,212,324,23.27,178376
-120,-33,-496,-72,87,217,-84,-51,203,328,23.15,178463
-114,-10,-465,-101,159,270,-66,18,229,339,23.21,178550
62,-35,-353,5,61,270,-108,26,185,351,23.33,178636
159,35,42,-249,22,277,-38,20,242,427,23.33,178723
34,19,-213,-572,13,308,-88,-94,278,0,23.23,178810
-80,16,-401,-785,45,326,14,-45,120,0,23.17,178896
30,-26,-154,-766,69,321,30,-8,134,0,23.29,178983
-27,12,-476,-505,44,307,72,-40,195,1019,23.41,179070
-10,17,-491,-187,51,293,102,49,160,941,23.29,179156
15,24,-512,94,76,282,71,-76,150,0,23.29,179244
-47,-6,191,-3,79,299,60,-12,191,0,23.29,179330
-25,-79,-252,-239,35,297,124,-41,56,0,23.29,179417
-32,47,-113,-178,-54,289,152,-137,159,0,23.23,179504
-113,10,-94,97,-109,281,135,76,9,654,23.23,179590
101,66,-512,349,-2,273,104,-4,164,626,23.27,179677
7,92,-177,376,104,280,67,73,17,621,23.29,179764
-37,-23,-126,98,125,298,37,21,149,600,23.23,179850
-158,8,-17,-200,9,282,92,-55,119,577,23.27,179937
-28,57,-223,-287,-123,286,110,-46,79,545,23.23,180024
-17,-48,-69,-178,-104,268,114,-152,163,526,23.23,180111
13,42,-235,40,103,254,93,-47,177,492,23.33,180197
-34,26,-298,129,327,235,138,42,-11,492,23.11,180284
20,58,-362,168,440,206,90,50,7,493,23.21,180371
71,135,-426,124,383,156,76,44,95,501,23.27,180457
69,72,-464,-5,203,120,52,45,30,501,23.17,180544
14,71,-512,-40,-79,73,78,-45,18,500,23.21,180631
43,43,-512,1,-314,34,29,24,30,500,23.33,180717
-22,78,-308,-75,-381,-2,102,-4,100,501,23.33,180804
159,34,37,8,-280,-37,88,-35,136,503,23.21,180890
-75,-1,-397,84,-95,-49,67,-9,89,445,23.27,180977
50,63,-442,215,72,-72,-2,16,141,267,23.29,181063
-54,-30,-17,222,172,-91,-17,-10,137,186,23.27,181150
-12,27,-512,108,238,-84,32,80,131,137,23.35,181237
-140,2,-512,-153,172,-65,-24,31,101,111,23.23,181323
-58,24,-512,-316,144,-51,28,30,92,94,23.29,181410
-138,-22,-512,-278,36,-62,12,15,110,55,23.29,181497
48,88,8,-78,419,-66,80,67,89,82,23.27,181583
-85,31,-135,-83,213,-71,-11,166,44,62,23.27,181670
202,62,22,256,-175,-117,38,42,109,45,23.23,181757
-80,81,-512,333,-384,-148,-81,26,228,41,23.29,181843
-85,-3,-192,-13,-30,-103,47,59,91,43,23.27,181931
-59,33,319,-123,91,-91,-20,92,174,51,23.41,182017
-3,-1,-228,-263,138,-102,-54,29,206,67,23.29,182104
27,174,-460,-486,100,-115,-32,35,171,105,23.21,182191
52,43,-449,-493,156,-141,0,-2,144,760,23.21,182277
-66,41,162,-588,274,-142,143,-19,179,0,23.27,182364
45,20,-117,-297,313,-159,7,70,190,0,23.23,182451
-80,29,-183,-46,278,-169,79,60,169,0,23.33,182537
-82,-24,-512,69,225,-186,79,-41,123,0,23.27,182624
118,-3,6,234,325,-194,-7,6,190,278,23.41,182711
-40,-14,-134,315,358,-196,47,-2,140,177,23.35,182797
-153,72,-512,48,316,-214,6,66,122,171,23.57,182884
104,24,-380,-138,94,-257,63,51,51,224,23.57,182971
93,6,-158,-316,-84,-288,2,45,105,357,23.33,183057
63,54,-512,-105,-205,-341,-45,61,162,425,23.39,183144
-134,46,-374,-189,-42,-345,7,-18,128,432,23.33,183231
-81,-24,76,22,29,-345,12,34,216,397,23.27,183317
68,-52,-417,-115,161,-331,8,51,176,376,23.39,183404
-156,61,-512,-121,193,-330,-25,-41,189,1485,23.65,183491
-61,78,-14,-286,250,-316,-30,61,212,1534,23.35,183578
30,-22,-44,-236,167,-325,-26,28,179,1573,23.35,183665
-79,-12,-411,-306,159,-307,-30,20,165,821,23.39,183751
29,81,-395,-241,234,-290,7,3,180,1628,23.33,183838
87,3,-459,-89,150,-283,40,39,193,1624,23.29,183925
78,49,-424,132,-21,-317,25,-99,278,1624,23.35,184011
-7,20,-425,309,-59,-327,60,13,80,379,23.41,184098
27,45,-113,518,158,-311,-93,24,206,140,23.45,184185
26,71,-449,516,272,-291,-129,106,214,98,23.35,184272
-69,-6,-512,165,272,-305,-81,-48,106,97,23.35,184358
138,15,8,-51,200,-306,-120,-5,182,106,23.57,184445
4,109,-233,-189,11,-335,-155,-1,221,111,23.47,184532
-28,39,-512,-64,-45,-353,-208,-34,204,109,23.45,184619
-59,10,10,83,40,-324,-127,73,22,107,23.45,184706
-147,-46,-512,-214,258,-236,-184,138,147,111,23.33,184793
55,63,419,-16,211,-190,-181,220,77,105,23.45,184880
88,17,-495,-118,175,-147,-203,146,92,92,23.39,184966
105,7,-287,3,-3,-74,-212,-74,175,73,23.39,185053
166,82,-46,38,-123,-38,-144,211,132,43,23.45,185140
135,61,-427,-840,-485,88,-210,292,68,55,23.29,185226
-55,27,-22,-344,225,209,-150,-92,170,59,23.29,185313
-8,19,-103,207,337,215,-174,186,107,52,23.27,185400
-131,31,-44,201,334,230,-208,28,186,50,23.33,185487
-101,-76,-424,259,90,223,-221,4,219,46,23.27,185573
58,11,-19,86,12,232,-203,122,169,45,23.39,185660
23,-2,-201,-92,84,257,-228,25,239,45,23.35,185747
-61,12,-423,-267,-1,255,-203,171,156,45,23.35,185833
66,40,-453,-254,-115,229,-172,75,118,44,23.29,185920
28,80,-386,-238,-66,244,-155,118,124,45,23.17,186007
-1,-31,-512,-196,-57,238,-110,21,148,46,23.33,186093
79,46,77,-150,81,238,-153,-55,239,46,23.23,186180
-173,92,-512,-86,-11,225,-104,95,183,47,23.21,186267
35,-23,190,-311,33,242,-95,63,181,60,23.35,186353
84,8,-510,-311,189,203,-70,187,90,66,23.41,186440
41,-56,-389,-114,-69,153,-48,132,136,61,23.41,186527
65,-12,-135,-53,83,114,-69,139,107,56,23.23,186613
24,36,-216,-65,49,70,-39,132,94,58,23.27,186700
62,37,-90,-86,93,48,-46,131,125,54,23.21,186787
-32,-7,-277,-84,80,42,-45,142,126,59,23.33,186873
-19,15,-369,-79,74,24,-46,145,125,60,23.29,186960
15,42,-217,-69,70,28,-46,143,122,56,23.41,187046
0,29,-253,-74,74,20,-48,145,125,61,23.47,187133
11,22,-227,-69,70,26,-48,145,126,57,23.47,187220
0,20,-273,-69,71,27,-52,143,125,57,23.35,187307
-6,33,-258,-70,70,23,-52,143,125,58,23.23,187394
-7,31,-272,-73,71,25,-50,143,128,58,23.39,187480
-11,34,-266,-72,71,27,-50,142,126,56,23.33,187567
-1,29,-263,-71,71,25,-52,141,125,57,23.39,187653
-4,31,-256,-71,73,25,-46,139,126,61,23.53,187740
-12,35,-252,-72,71,27,-47,139,123,59,23.35,187827
-1,34,-255,-72,71,22,-45,140,126,58,23.35,187913
-6,32,-261,-70,73,25,-49,141,124,60,23.33,188000
-9,32,-255,-69,72,29,-48,141,128,56,23.27,188086
-4,34,-260,-70,71,27,-48,142,132,56,23.39,188173
-2,34,-264,-71,72,26,-48,137,126,60,23.47,188259
-5,30,-267,-69,73,26,-49,141,125,56,23.39,188346
-20,29,-260,-71,72,27,-47,142,131,60,23.57,188433
-9,32,-262,-71,73,26,-52,139,123,59,23.39,188519
-2,37,-272,-73,72,23,-46,141,126,59,23.39,188606
-3,34,-262,-70,72,26,-47,139,130,59,23.33,188692
-6,33,-279,-74,71,28,-48,141,126,59,23.41,188779
-8,31,-264,-71,72,24,-48,142,125,59,23.39,188865
0,33,-258,-71,72,25,-48,145,127,60,23.39,188952
-11,36,-268,-71,72,28,-49,145,129,60,23.29,189039
-2,37,-278,-73,70,25,-47,145,126,58,23.47,189125
-6,33,-248,-70,72,24,-49,143,126,60,23.41,189212
-5,36,-262,-70,70,28,-48,142,122,56,23.41,189298
-3,35,-256,-71,72,25,-49,142,126,58,23.35,189385
-3,33,-262,-71,72,24,-49,143,122,62,23.29,189471
-9,30,-269,-72,72,27,-47,140,128,59,23.29,189558
-7,29,-269,-72,72,26,-50,139,126,59,23.39,189645
-5,30,-266,-71,72,25,-48,143,123,59,23.45,189731
-6,31,-266,-70,72,27,-48,143,125,60,23.45,189818
-4,34,-261,-70,72,27,-49,144,126,60,23.39,189904
-5,33,-261,-70,72,25,-48,143,125,59,23.39,189991
-4,32,-262,-70,72,26,-49,141,125,55,23.33,190077
-7,32,-270,-71,72,23,-49,143,125,59,23.35,190164
-6,32,-262,-70,71,29,-49,144,127,58,23.45,190252
-3,33,-264,-71,71,27,-48,142,126,60,23.51,190338
-5,33,-263,-71,72,21,-46,144,124,58,23.47,190425
-5,33,-265,-70,72,28,-48,142,124,61,23.41,190511
-4,33,-263,-69,72,27,-49,145,124,59,23.51,190598
-5,32,-266,-71,72,22,-46,145,125,59,23.39,190684
-6,33,-266,-71,72,26,-49,145,124,60,23.39,190771
-5,33,-265,-70,72,28,-50,145,124,59,23.51,190858
-5,32,-268,-72,72,23,-50,143,126,60,23.35,190944
-5,32,-258,-71,72,26,-47,145,124,58,23.39,191031
-5,34,-263,-70,71,28,-50,143,122,56,23.45,191117
-5,32,-265,-72,71,24,-50,139,122,58,23.41,191204
-7,33,-261,-70,71,26,-49,143,125,62,23.51,191290
-5,32,-265,-70,71,28,-49,142,124,59,23.41,191377
-5,33,-269,-71,72,24,-50,144,125,59,23.41,191464
-4,32,-259,-71,71,25,-51,140,124,58,23.33,191550
-5,33,-262,-71,72,28,-49,144,125,59,23.33,191637
-6,33,-264,-70,71,25,-48,141,121,57,23.35,191723
-6,32,-261,-71,72,25,-47,141,122,59,23.39,191810
-5,34,-261,-70,71,27,-50,143,124,55,23.59,191896
-5,33,-263,-71,72,25,-49,141,126,59,23.39,191983
-5,33,-264,-70,72,24,-49,142,124,58,23.39,192069
-4,32,-263,-70,71,27,-49,140,123,57,23.39,192156
-4,33,-260,-71,72,25,-50,146,124,60,23.35,192243
-6,33,-262,-71,72,25,-47,144,125,62,23.29,192329
-5,33,-264,-71,72,27,-49,143,126,60,23.39,192416
-5,32,-264,-71,71,26,-46,143,123,58,23.39,192502
-5,33,-263,-71,72,25,-46,143,124,58,23.47,192589
-6,33,-261,-71,72,27,-51,144,123,59,23.51,192675
-5,33,-263,-70,73,26,-49,148,124,58,23.45,192762
-6,33,-262,-71,72,25,-48,144,124,58,23.45,192849
-6,32,-260,-70,72,27,-50,142,125,57,23.41,192935
-5,33,-261,-70,72,26,-48,143,123,58,23.33,193022
-4,32,-254,-72,71,25,-49,143,122,56,23.27,193108
-4,32,-250,-71,71,26,-50,142,123,55,23.29,193196
-5,33,-266,-71,70,27,-52,142,123,57,23.33,193282
-3,31,-253,-70,72,25,-48,143,123,57,23.29,193369
-5,32,-259,-71,71,26,-54,140,126,59,23.45,193456
-7,33,-264,-72,71,26,-48,144,124,60,23.45,193542
-5,32,-261,-71,72,25,-48,141,123,61,23.35,193629
-5,31,-262,-70,72,25,-48,141,123,60,23.39,193715
-5,31,-261,-71,71,26,-48,144,124,61,23.35,193802
-5,32,-263,-70,71,25,-48,140,125,57,23.29,193888
-6,33,-260,-71,72,25,-51,144,125,59,23.39,193975
-6,33,-263,-71,72,26,-48,139,127,60,23.35,194062
-5,34,-263,-71,72,26,-45,141,127,60,23.29,194148
-5,32,-262,-71,72,26,-51,144,124,58,23.29,194235
-5,31,-263,-70,72,26,-47,143,125,59,23.35,194321
-6,33,-262,-71,71,26,-50,144,124,60,23.39,194408
-6,33,-262,-71,72,25,-48,140,126,58,23.57,194494
-7,32,-262,-71,72,26,-48,146,124,60,23.45,194581
-4,32,-263,-71,71,26,-46,144,125,58,23.41,194668
-5,32,-261,-70,72,26,-47,144,123,56,23.41,194754
-4,33,-261,-71,72,26,-48,143,127,63,23.33,194841
-6,32,-262,-71,72,26,-49,144,125,53,23.33,194927
-5,33,-262,-71,72,26,-49,139,124,57,23.41,195014
-5,32,-263,-71,72,26,-49,142,124,60,23.29,195100
-6,33,-262,-70,71,26,-50,144,125,59,23.41,195187
-7,33,-262,-71,71,25,-49,141,123,55,23.39,195274
-6,32,-262,-70,72,26,-50,142,125,59,23.41,195360
-5,33,-261,-71,71,26,-48,142,128,58,23.41,195447
-6,33,-262,-71,72,26,-51,144,125,58,23.41,195533
-5,32,-263,-70,72,26,-51,142,122,59,23.41,195620
-6,33,-261,-70,71,26,-49,142,124,59,23.41,195706
-4,34,-263,-71,72,26,-50,144,123,58,23.45,195793
-5,32,-265,-71,71,26,-48,141,124,56,23.33,195879
-5,33,-263,-71,72,26,-50,145,127,57,23.45,195966
-6,33,-264,-70,72,26,-49,143,127,56,23.41,196054
-4,31,-258,-71,-258,-258,-50,143,125,58,23.41,196140
-5,33,-263,-71,72,26,-47,143,123,57,23.35,196227
-7,33,-263,-70,71,26,-49,144,123,60,23.45,196313
-5,33,-262,-70,71,26,-52,145,123,58,23.45,196400
-5,34,-262,-70,72,26,-48,142,123,61,23.33,196487
-6,34,-261,-71,71,26,-50,147,125,60,23.45,196573
-5,31,-261,-71,71,25,-50,145,125,58,23.29,196660
-5,32,-263,-71,72,26,-48,143,124,60,23.45,196746
-5,32,-261,-71,72,26,-50,143,122,60,23.33,196833
-5,32,-262,-70,71,25,-49,143,123,58,23.41,196919
-4,34,-259,-70,72,25,-49,142,122,58,23.39,197006
-5,32,-260,-71,72,26,-47,144,125,59,23.39,197093
-4,32,-261,-71,72,26,-50,142,126,57,23.29,197179
-5,33,-262,-71,71,26,-51,142,125,55,23.41,197266
-5,33,-262,-71,71,25,-50,142,125,59,23.41,197352
-6,33,-262,-70,71,26,-47,143,126,58,23.39,197439
-5,33,-261,-70,72,26,-48,143,122,60,23.51,197525
-6,33,-261,-71,72,26,-49,142,126,59,23.39,197612
-4,33,-261,-70,71,25,-52,142,128,59,23.35,197699
-5,33,-264,-70,72,25,-48,144,124,58,23.35,197785
-5,34,-262,-71,72,26,-49,145,120,58,23.29,197872
-5,33,-262,-71,71,26,-48,145,120,60,23.41,197958
-5,33,-258,-70,71,25,-50,143,126,64,23.39,198045
-6,33,-263,-71,72,26,-47,147,123,60,23.27,198131
-5,32,-267,-71,71,25,-47,144,124,59,23.45,198218
-5,33,-261,-70,72,26,-49,143,124,56,23.45,198305
-6,33,-263,-71,71,26,-51,145,124,58,23.35,198391
-3,32,-261,-71,71,25,-49,145,124,56,23.35,198478
-5,32,-261,-71,72,25,-47,141,122,59,23.47,198564
-6,32,-266,-70,72,26,-47,142,123,58,23.27,198651
-6,33,-260,-70,72,26,-47,144,124,59,23.39,198737
-5,33,-262,-70,72,25,-49,143,124,58,23.29,198824
-5,32,-262,-70,72,25,-52,140,125,54,23.41,198912
-5,32,-262,-70,72,25,-48,141,125,58,23.53,198998
-4,33,-262,-71,72,26,-48,140,125,58,23.47,199085
-5,33,-261,-70,71,26,-52,143,124,59,23.47,199171
-5,33,-262,-70,71,26,-50,140,124,60,23.21,199258
-5,33,-263,-71,72,26,-48,141,125,57,23.47,199344
-6,32,-261,-71,72,26,-46,145,125,59,23.35,199431
-5,34,-262,-70,72,26,-47,143,128,57,23.39,199518
-6,34,-263,-70,72,26,-47,144,124,59,23.57,199604
-5,33,-262,-71,72,26,-46,140,126,60,23.35,199691
-4,33,-261,-71,72,26,-46,141,126,59,23.45,199777
-6,33,-261,-70,71,26,-49,145,123,58,23.45,199864
-6,33,-262,-70,71,25,-47,143,125,60,23.45,199950
-5,32,-261,-71,72,26,-46,141,126,60,23.29,200037
-5,32,-260,-70,72,25,-52,144,126,55,23.39,200124
-5,32,-262,-71,72,26,-48,145,124,59,23.39,200210
-7,33,-265,-71,72,25,-50,145,126,60,23.29,200297
-5,32,-260,-71,72,26,-50,144,125,59,23.29,200383
-5,33,-261,-71,71,25,-48,143,122,59,23.41,200470
-6,33,-263,-70,72,26,-49,143,125,56,23.41,200556
-6,33,-264,-70,72,26,-48,142,126,60,23.33,200643
-5,32,-262,-70,71,26,-48,144,122,58,23.39,200729
-5,33,-263,-71,71,25,-51,141,122,58,23.57,200816
-5,32,-266,-71,72,26,-46,143,124,57,23.41,200903
-4,33,-263,-72,72,25,-49,143,128,60,23.23,200989
-5,33,-264,-70,71,25,-46,142,124,60,23.23,201076
-5,33,-262,-71,72,26,-48,141,124,55,23.33,201162
-5,31,-259,-70,72,26,-49,142,125,58,23.33,201249
-5,32,-259,-70,71,25,-48,144,125,59,23.39,201335
-5,33,-269,-71,71,25,-50,144,127,58,23.51,201422
-7,33,-262,-71,72,26,-49,145,123,58,23.41,201509
-7,33,-263,-70,71,26,-49,144,122,59,23.39,201595
-7,33,-262,-70,71,26,-48,143,123,58,23.59,201682
-5,33,-260,-70,71,26,-51,144,125,62,23.35,201768
-5,33,-261,-70,72,26,-47,143,126,59,23.29,201856
-6,33,-266,-71,72,25,-48,142,124,59,23.29,201942
-5,33,-261,-71,71,26,-47,143,125,60,23.29,202029
-6,33,-261,-71,72,26,-50,143,126,61,23.29,202116
-6,31,-260,-71,72,25,-50,144,123,59,23.41,202202
-5,32,-261,-71,72,25,-48,144,125,61,23.29,202289
-5,33,-261,-70,71,25,-49,143,125,59,23.35,202375
-6,33,-264,-70,71,26,-47,144,124,57,23.35,202462
-6,32,-262,-71,72,25,-51,140,127,59,23.35,202548
-7,34,-261,-72,72,26,-50,145,124,59,23.35,202635
-6,33,-262,-70,72,25,-51,141,126,57,23.35,202722
-4,32,-264,-71,71,26,-50,143,125,61,23.39,202808
-4,33,-263,-71,72,25,-51,143,124,59,23.45,202895
-5,33,-263,-70,72,26,-49,142,126,55,23.33,202981
-5,33,-260,-70,72,26,-49,143,126,58,23.39,203068
-4,31,-261,-72,72,26,-49,142,126,58,23.39,203154
-5,33,-260,-70,72,26,-52,144,125,60,23.29,203241
-4,33,-261,-71,72,25,-48,144,126,61,23.39,203327
-5,33,-259,-70,72,26,-50,142,124,58,23.39,203414
-6,33,-262,-71,72,26,-49,144,124,56,23.53,203501
-6,32,-263,-70,71,26,-48,143,124,62,23.45,203587
-7,32,-261,-72,72,25,-50,143,125,60,23.39,203674
-5,32,-266,-71,71,26,-48,146,125,60,23.63,203760
-5,33,-261,-70,72,25,-48,144,123,58,23.39,203847
-5,32,-260,-70,71,26,-49,141,123,56,23.39,203933
-5,33,-263,-71,72,26,-48,144,124,59,23.33,204020
-2,41,-268,-67,70,32,-54,68,81,58,23.33,204107
-1,38,-258,-73,71,19,-66,204,105,59,23.23,204193
-4,37,-264,-71,73,24,-48,191,144,57,23.35,204280
0,33,-259,-69,72,32,-56,178,132,59,23.23,204366
2,35,-259,-70,71,22,-51,120,117,57,23.41,204453
-8,33,-260,-73,70,25,-44,123,127,57,23.35,204539
-8,27,-270,-71,72,33,-36,81,126,58,23.33,204626
-22,32,-266,-70,72,26,-49,137,136,64,23.29,204713
-23,37,-197,-68,72,22,-58,168,140,54,23.29,204800
16,-9,-317,-49,58,29,-68,158,191,57,23.21,204887
2,39,-507,-77,57,24,-41,103,117,59,23.39,204973
-57,61,-128,-61,91,12,-52,12,125,58,23.57,205060
-23,42,-57,-113,68,26,-42,142,144,58,23.41,205146
-49,37,-421,-39,74,17,-43,112,146,58,23.27,205233
-22,20,-134,421,420,419,-38,117,139,60,23.29,205319
-135,32,-338,-107,65,22,-42,165,78,62,23.29,205406
-76,44,-493,-99,49,13,-55,104,139,55,23.29,205492
-110,65,-84,-109,88,1,-45,113,145,58,23.21,205579
-91,23,-512,-72,72,-22,-83,126,132,58,23.27,205666
-21,69,-185,-101,83,-31,-45,97,157,63,23.21,205752
-46,87,-38,-31,61,-32,-47,48,137,58,23.23,205839
-17,63,10,1,82,-29,-92,99,110,57,23.17,205925
5,54,-373,12,80,-18,-39,124,124,55,23.17,206012
51,-18,-460,-49,92,-13,-84,150,113,57,23.17,206099
-94,47,122,17,68,12,-54,105,166,58,23.17,206185
-65,-20,-512,-128,80,52,-33,95,117,59,23.29,206272
30,10,-191,-11,56,59,-54,98,149,62,23.21,206358
-157,25,-158,-51,69,89,-39,71,144,60,23.17,206445
1,33,-512,-132,78,75,-65,36,152,59,23.09,206531
-91,34,-406,-120,86,53,-54,155,116,60,23.23,206618
-147,-26,-412,-104,68,0,-47,16,141,59,23.27,206705
-91,-41,-407,-150,83,-4,-42,172,93,58,23.17,206791
-2,-9,-512,1,80,8,-67,123,133,61,23.17,206878
29,13,-306,-113,92,-20,-52,135,127,59,23.23,206964
91,63,125,-26,83,-37,-29,114,98,60,23.17,207051
-2,-2,-9,-135,94,-21,-70,86,183,62,23.29,207137
-15,14,-512,-22,82,-27,-50,155,125,61,23.23,207224
63,36,-370,-138,73,-36,-57,114,163,60,23.15,207311
-14,26,-512,-110,67,4,-46,115,139,58,23.29,207397
-4,32,-512,-58,66,29,-39,127,93,60,23.27,207484
-18,15,-365,-62,85,24,-58,100,156,57,23.27,207571
-10,33,-426,-81,59,27,-74,166,164,58,23.27,207657
-43,26,2,-64,80,26,-53,148,132,60,23.17,207745
-8,15,-477,-57,61,26,-58,134,124,61,23.21,207831
17,39,-123,-82,77,26,-72,147,79,59,23.15,207918
-82,6,-231,-57,65,25,-38,125,149,60,23.21,208004
-20,24,-268,-104,79,27,-68,200,150,56,23.23,208091
-11,38,-407,-41,71,26,-53,177,86,59,23.29,208178
-19,75,-20,-108,77,28,-54,138,119,62,23.23,208264
