Acc X,Acc Y,Acc Z,Gyro X,Gyro Y,Gyro Z,Compass X,Compass Y,Compass Z,Lidar,Temperature,Time
7,30,-261,-70,73,13,46,114,-201,48,24.03,257
7,29,-263,-69,72,26,50,112,-200,50,24.03,344
10,30,-263,-70,73,25,50,115,-200,46,24.03,430
6,29,-264,-70,73,19,47,114,-201,48,23.99,517
7,29,-262,-70,73,20,47,113,-200,45,23.93,603
3,25,-262,-67,72,26,48,113,-201,45,23.97,689
8,29,-263,-72,73,17,48,116,-199,48,23.97,776
7,30,-261,-70,73,27,49,113,-201,47,23.99,862
5,25,-281,-69,74,20,51,116,-198,49,23.97,949
6,28,-265,-70,72,24,51,116,-197,46,23.97,1035
8,30,-261,-70,72,23,57,121,-199,50,23.93,1122
7,30,-262,-70,72,19,55,116,-194,45,23.93,1208
6,29,-263,-70,72,23,55,117,-197,45,23.97,1294
10,43,-275,-70,72,24,52,123,-197,48,23.85,1381
-20,46,-274,-70,72,18,32,151,-132,47,23.91,1467
3,16,-262,-70,72,18,60,193,-201,48,23.93,1554
6,25,-265,-69,71,31,45,144,-193,50,23.87,1640
8,25,-265,-70,72,18,48,203,-201,49,23.81,1727
6,31,-262,-71,72,13,59,178,-195,50,23.81,1813
7,31,-262,-69,72,32,55,116,-199,49,23.81,1900
10,31,-262,-70,72,24,57,119,-195,45,23.87,1986
6,27,-264,-72,72,11,58,113,-193,48,23.87,2073
4,29,-263,-69,71,29,58,117,-197,46,23.97,2159
9,31,-263,-70,71,28,60,119,-201,46,23.91,2246
6,30,-260,-70,72,12,59,116,-195,44,23.97,2332
4,29,-263,-69,72,23,59,116,-197,47,23.85,2419
8,29,-262,-69,72,29,56,115,-194,47,23.85,2505
6,30,-260,-70,72,16,57,116,-197,45,23.91,2592
5,28,-264,-70,72,21,55,117,-195,49,23.93,2678
6,30,-264,-69,72,28,61,114,-196,46,23.79,2764
7,29,-264,-70,72,18,53,117,-193,45,23.93,2851
6,29,-265,-71,72,18,56,118,-196,47,23.97,2937
7,29,-262,-69,71,28,52,126,-132,45,23.97,3024
39,29,-271,-71,71,22,61,114,-205,45,23.87,3110
0,34,-268,-71,72,18,60,108,-193,49,23.87,3197
6,28,-260,-70,71,21,35,199,-200,47,23.87,3283
3,-37,-250,-69,72,26,40,221,-195,50,23.93,3371
16,39,-268,-69,71,19,64,115,-200,50,23.97,3457
-3,52,-273,-70,72,20,53,124,-139,47,23.91,3544
3,111,-280,-70,72,23,60,116,-196,49,23.91,3630
18,45,-273,-69,72,21,57,111,-192,48,23.85,3717
6,31,-264,-69,72,24,58,116,-190,44,23.91,3803
6,29,-263,-70,72,20,59,117,-193,49,23.97,3890
6,30,-263,-69,72,23,56,114,-194,46,23.91,3976
7,29,-261,-70,72,23,56,114,-195,51,23.91,4063
6,29,-262,-69,71,21,60,117,-194,47,23.81,4149
7,28,-265,-70,71,22,61,116,-193,50,23.81,4235
6,28,-265,-70,71,20,57,116,-194,49,23.81,4322
7,30,-262,-69,71,25,59,115,-193,44,23.87,4408
8,30,-266,-70,71,21,57,118,-194,44,23.91,4495
5,29,-262,-70,71,20,57,117,-197,48,23.87,4581
5,29,-262,-69,71,24,61,112,-196,48,23.87,4668
8,29,-263,-70,72,23,42,198,-196,45,23.87,4754
22,17,-263,-70,71,19,28,243,-197,48,23.85,4841
-11,89,-262,-69,71,25,37,161,-185,45,23.81,4927
33,27,-270,-69,71,24,68,118,-195,45,24.03,5014
-2,-3,-257,-70,72,19,60,113,-195,48,23.85,5100
6,30,-264,-69,71,23,55,114,-198,48,23.93,5187
6,31,-263,-69,71,25,56,116,-194,50,23.97,5273
5,30,-264,-70,71,18,59,115,-193,46,23.85,5360
6,30,-263,-69,72,23,62,114,-195,48,23.99,5446
8,29,-263,-69,71,26,58,113,-194,47,23.99,5532
6,30,-262,-70,71,19,57,118,-192,48,23.93,5619
5,30,-263,-70,71,21,60,118,-195,48,23.91,5705
6,29,-264,-69,71,26,60,118,-194,44,23.93,5792
7,30,-263,-75,-258,-258,61,117,-193,47,23.87,5878
6,29,-263,-70,71,20,59,117,-193,46,23.91,5965
7,28,-263,-70,70,25,60,116,-197,44,23.85,6051
7,29,-263,-70,71,22,57,114,-194,45,23.85,6138
7,30,-263,-70,71,20,58,116,-195,48,23.85,6224
6,29,-263,-69,71,23,58,115,-196,47,24.09,6311
6,30,-265,-70,71,23,57,113,-194,47,23.93,6397
7,30,-264,-70,71,20,58,114,-194,46,23.97,6484
7,29,-264,-69,72,23,57,116,-194,48,23.97,6571
7,29,-263,-69,71,24,59,118,-193,47,23.93,6658
6,29,-264,-70,72,20,59,115,-197,49,23.93,6744
6,30,-264,-70,72,22,60,116,-195,48,23.81,6830
6,30,-264,-70,71,24,59,115,-197,47,23.79,6917
7,30,-263,-69,71,21,58,116,-194,49,23.79,7003
5,29,-264,-69,71,21,57,116,-196,43,23.93,7090
6,31,-264,-69,71,24,61,117,-195,45,23.87,7176
7,31,-262,-70,71,22,58,116,-195,45,23.79,7263
6,30,-262,-69,71,21,56,118,-196,48,23.91,7349
6,30,-262,-69,71,23,57,117,-195,46,23.75,7436
6,30,-261,-69,71,22,61,118,-196,46,23.91,7522
6,30,-263,-70,71,21,59,116,-195,47,23.91,7609
7,30,-264,-69,71,22,56,116,-193,46,23.91,7695
8,29,-262,-70,71,23,59,117,-194,49,23.91,7782
5,29,-262,-70,71,21,58,114,-194,45,23.85,7868
5,30,-264,-70,72,22,59,111,-196,46,23.91,7954
7,30,-262,-69,71,23,57,114,-196,47,23.81,8041
6,30,-263,-70,71,22,58,116,-193,47,23.99,8127
5,30,-265,-69,71,22,59,116,-191,47,23.81,8214
7,29,-262,-70,71,23,58,115,-195,46,23.91,8300
6,30,-260,-70,71,22,57,115,-194,49,23.79,8387
7,30,-264,-69,71,22,57,117,-195,46,23.79,8473
6,29,-263,-70,71,23,64,215,-159,49,23.85,8560
-20,8,-235,-66,76,18,241,19,94,47,23.87,8646
-3,39,-281,-73,68,22,-85,319,-507,46,23.81,8733
37,13,-270,-68,67,24,40,-104,-387,48,23.75,8819
34,28,-167,-98,60,27,55,193,-118,49,23.75,8906
47,17,-300,-98,55,35,22,26,-217,48,23.71,8992
61,-23,-159,-30,84,47,57,109,-147,45,23.79,9079
59,34,-314,-71,74,24,58,114,-193,48,23.79,9165
-51,32,-237,-67,73,29,58,113,-197,47,23.63,9252
3,12,-208,-68,76,19,57,114,-195,44,23.65,9338
6,3,-221,-77,71,17,59,111,-197,48,23.59,9424
6,24,-270,-63,74,29,57,112,-193,47,23.63,9511
19,40,-260,-74,71,20,63,110,-194,46,23.63,9597
7,33,-250,-60,73,19,61,113,-194,45,23.51,9684
8,34,-275,-70,69,26,57,112,-196,46,23.59,9771
15,39,-279,-67,72,23,61,112,-194,46,23.63,9858
5,28,-256,-68,71,19,60,109,-198,46,23.63,9944
11,28,-234,-71,71,23,56,115,-194,47,23.57,10031
10,34,-254,-69,71,25,56,112,-198,47,23.45,10117
8,30,-268,-72,71,18,61,112,-196,47,23.53,10204
4,28,-265,-68,73,24,59,114,-196,48,23.63,10290
5,32,-266,-72,70,27,57,111,-197,46,23.51,10377
3,28,-274,-70,71,21,58,112,-199,44,23.57,10463
5,29,-264,-70,70,23,59,117,-197,45,23.63,10550
3,24,-251,-68,70,26,59,111,-191,44,23.63,10636
13,35,-266,-70,71,22,57,113,-197,45,23.53,10723
16,31,-257,-70,70,24,62,115,-193,47,23.57,10810
1,31,-253,-71,71,25,58,114,-202,47,23.59,10896
6,30,-262,-69,71,19,62,113,-191,48,23.65,10983
6,35,-265,-70,71,22,57,114,-197,48,23.75,11069
2,27,-266,-69,71,28,55,111,-196,47,23.59,11156
5,31,-280,-70,71,18,65,113,-194,51,23.65,11242
2,27,-254,-72,71,21,58,111,-193,45,23.65,11329
16,38,-234,-67,71,28,60,112,-193,47,23.71,11415
7,33,-281,-69,71,21,57,113,-192,49,23.65,11502
6,25,-254,-72,71,19,59,115,-194,49,23.75,11588
4,31,-276,-69,71,26,63,111,-200,48,23.71,11675
7,33,-264,-70,71,22,56,110,-193,49,23.69,11761
5,27,-257,-70,71,19,57,110,-195,51,23.85,11848
8,25,-264,-69,70,26,58,112,-197,45,23.69,11934
9,30,-262,-70,71,24,59,112,-194,49,23.69,12021
3,28,-269,-70,71,19,61,113,-197,47,23.81,12107
6,28,-265,-70,71,24,59,110,-198,45,23.65,12194
7,29,-262,-70,71,25,59,111,-196,48,23.79,12280
7,29,-264,-70,71,19,59,111,-194,50,23.69,12367
5,29,-265,-70,71,22,61,112,-195,49,23.71,12453
6,29,-263,-69,71,27,56,112,-195,50,23.69,12540
6,31,-264,-70,71,23,89,85,-151,48,23.71,12626
1,21,-270,-74,71,18,4,58,-278,49,23.71,12713
-7,25,-285,-72,68,24,128,-166,-248,48,23.75,12800
-6,26,-254,-70,72,25,64,53,-165,45,23.63,12887
-3,48,-248,-71,67,16,60,130,-178,47,23.71,12973
5,34,-290,-65,68,22,58,111,-196,46,23.65,13060
20,26,-240,-69,71,29,60,113,-192,48,23.59,13146
10,34,-259,-78,72,16,71,85,-183,45,23.53,13233
-11,12,-256,-69,71,22,72,108,-192,49,23.63,13319
8,23,-257,-66,72,27,50,116,-195,46,23.63,13406
20,35,-251,-69,71,20,47,141,-213,50,23.63,13492
7,28,-285,-71,71,21,56,112,-196,48,23.59,13579
-3,38,-262,-76,68,25,57,113,-195,46,23.45,13665
-4,26,-243,-68,72,20,56,111,-194,49,23.47,13752
10,33,-260,-70,72,21,58,111,-191,48,23.63,13838
10,31,-278,-69,72,25,60,112,-191,44,23.59,13925
11,23,-262,-68,72,22,56,113,-190,48,23.51,14012
2,32,-253,-70,71,21,59,112,-193,47,23.57,14098
-5,26,-259,-68,70,25,60,111,-194,46,23.57,14185
5,29,-276,-72,70,22,57,110,-196,50,23.57,14271
5,29,-269,-70,72,19,61,114,-193,44,23.59,14358
10,29,-269,-69,71,23,55,115,-197,47,23.57,14444
1,27,-251,-69,71,23,59,113,-191,47,23.53,14531
9,27,-266,-68,71,21,64,114,-193,45,23.71,14617
-5,30,-272,-70,72,24,56,113,-193,46,23.59,14704
7,31,-254,-68,71,25,58,112,-195,49,23.71,14790
4,27,-262,-69,70,20,58,111,-190,45,23.71,14877
3,26,-264,-70,71,22,60,114,-198,50,23.71,14963
3,28,-260,-69,71,26,58,111,-197,45,23.63,15050
3,28,-265,-71,70,21,60,114,-192,45,23.63,15136
4,32,-259,-71,71,22,63,113,-193,47,23.57,15223
6,30,-245,-66,72,25,59,110,-197,47,23.65,15309
6,30,-239,-66,72,22,59,111,-191,49,23.59,15396
0,30,-272,-71,71,21,57,112,-198,51,23.65,15482
9,30,-257,-68,72,24,54,116,-194,48,23.65,15569
3,31,-254,-70,71,23,62,111,-193,48,23.79,15655
6,29,-264,-70,71,21,60,112,-192,46,23.79,15742
4,31,-267,-71,70,24,58,113,-195,47,23.71,15828
7,31,-262,-70,71,24,58,113,-195,49,23.69,15916
10,30,-263,-70,71,21,56,117,-198,47,23.75,16002
5,29,-260,-69,70,24,56,114,-199,47,23.85,16089
6,31,-261,-70,71,24,58,114,-197,45,23.71,16176
5,31,-262,-70,71,18,58,113,-190,51,23.71,16262
5,31,-263,-70,70,28,56,114,-197,46,23.75,16349
7,31,-264,-70,71,23,61,112,-195,44,23.71,16435
5,30,-262,-70,71,15,58,114,-195,47,23.75,16522
4,31,-264,-70,70,29,54,114,-197,49,23.81,16608
7,30,-264,-70,71,25,55,115,-194,44,23.85,16695
4,31,-260,-71,72,14,57,114,-195,47,24.05,16781
5,29,-262,-70,71,25,58,113,-196,47,23.71,16868
8,31,-261,-70,70,27,54,108,-195,45,23.85,16954
6,29,-263,-71,71,16,57,111,-194,47,23.85,17041
5,30,-262,-70,71,23,58,115,-195,51,23.75,17127
8,31,-263,-70,71,28,57,112,-197,45,23.71,17214
6,30,-263,-71,71,19,57,113,-197,48,23.79,17300
4,29,-264,-69,71,21,60,112,-196,45,23.71,17387
5,31,-264,-70,71,27,56,113,-195,45,23.71,17473
7,30,-262,-70,71,20,56,114,-197,46,23.71,17560
4,30,-262,-70,71,20,57,114,-195,46,23.81,17646
5,31,-263,-69,70,26,54,114,-196,47,23.81,17733
7,32,-263,-69,71,22,58,111,-195,44,23.81,17819
4,30,-262,-70,71,20,58,113,-195,46,23.71,17906
5,29,-263,-70,71,25,57,113,-194,45,23.71,17992
5,31,-262,-70,71,24,55,113,-194,46,23.69,18079
7,29,-264,-70,71,20,56,113,-196,49,23.75,18165
5,30,-263,-70,70,24,56,113,-197,46,23.79,18252
6,30,-264,-69,70,24,58,113,-193,49,23.91,18338
6,31,-263,-69,71,20,56,116,-195,47,23.91,18425
5,30,-260,-70,71,22,56,114,-195,46,23.81,18511
6,29,-262,-69,71,25,59,112,-191,47,23.79,18598
4,29,-263,-69,71,21,54,112,-194,47,23.81,18684
5,29,-263,-69,71,21,56,115,-194,47,23.93,18771
5,31,-262,-70,71,25,55,112,-193,47,23.97,18857
6,31,-262,-70,71,22,57,116,-193,48,23.87,18945
4,29,-264,-70,71,22,57,111,-197,46,23.69,19031
4,30,-262,-70,71,24,57,115,-197,50,23.87,19118
6,30,-262,-69,71,23,56,114,-195,47,23.87,19204
5,31,-263,-70,70,22,54,111,-194,46,23.79,19291
6,29,-264,-70,70,23,54,111,-193,48,23.81,19377
5,31,-264,-70,71,23,58,111,-197,49,23.81,19464
4,30,-264,-69,71,21,60,111,-193,48,23.79,19550
6,29,-263,-70,71,23,55,110,-195,45,23.71,19637
5,30,-262,-70,71,23,58,114,-195,49,23.75,19723
6,29,-263,-70,71,22,58,114,-197,42,23.75,19810
5,30,-263,-70,71,22,56,112,-195,48,23.75,19896
5,30,-261,-70,71,24,58,113,-196,48,23.79,19983
6,29,-263,-70,71,22,60,112,-194,47,23.69,20069
5,30,-263,-70,71,22,57,114,-197,48,23.75,20156
5,30,-262,-70,71,23,59,114,-194,47,23.79,20242
6,29,-262,-70,71,23,56,114,-193,48,23.75,20329
5,29,-263,-70,71,22,54,110,-195,48,23.71,20415
5,31,-264,-70,71,22,60,116,-195,46,23.75,20502
6,31,-263,-70,71,23,59,110,-192,46,23.75,20588
5,30,-262,-70,71,22,57,114,-192,47,23.75,20675
5,31,-263,-70,71,22,53,110,-194,46,23.71,20761
6,29,-263,-69,71,23,55,114,-194,47,23.71,20848
5,30,-263,-70,70,21,60,115,-194,48,23.63,20934
4,30,-263,-70,70,22,57,115,-193,45,23.71,21021
5,29,-263,-69,71,23,59,113,-194,46,23.69,21107
7,29,-264,-70,71,23,58,111,-195,44,23.71,21194
4,31,-264,-69,71,22,56,113,-197,45,23.65,21280
5,31,-261,-70,71,23,58,111,-191,48,23.65,21367
4,31,-265,-69,71,23,58,112,-196,47,23.59,21453
5,31,-262,-70,70,22,57,115,-195,47,23.69,21540
5,30,-263,-70,71,23,55,113,-199,47,23.69,21627
5,30,-263,-70,70,22,56,112,-193,47,23.59,21713
5,30,-263,-70,70,22,58,116,-194,48,23.85,21800
6,30,-263,-69,71,23,56,112,-193,50,23.71,21886
6,30,-263,-70,71,22,55,112,-192,47,23.59,21974
5,30,-263,-70,71,22,56,113,-194,49,23.59,22060
4,31,-262,-70,70,22,57,112,-190,46,23.69,22147
6,29,-263,-70,71,23,54,112,-192,48,23.69,22233
5,31,-264,-70,70,22,60,115,-195,50,23.75,22320
5,30,-264,-70,70,23,56,116,-195,47,23.79,22406
6,29,-263,-70,70,23,54,116,-193,45,23.75,22493
6,29,-264,-70,71,22,56,114,-193,45,23.75,22579
5,29,-262,-69,71,22,56,114,-194,46,23.75,22666
5,31,-264,-70,71,23,58,109,-195,47,23.75,22752
4,31,-263,-70,71,23,58,114,-196,49,23.57,22839
5,30,-261,-70,71,23,56,112,-197,46,23.65,22925
5,31,-262,-70,71,23,58,114,-194,47,23.65,23012
5,30,-262,-70,71,23,57,114,-193,45,23.65,23098
4,31,-262,-70,70,22,58,113,-193,48,23.75,23185
6,30,-264,-70,71,22,58,109,-195,47,23.79,23271
6,31,-265,-69,71,22,57,114,-197,46,23.69,23358
6,31,-264,-70,71,22,56,114,-198,50,23.69,23444
5,30,-263,-70,71,23,58,114,-193,47,23.69,23531
5,30,-262,-70,71,23,59,111,-194,48,23.63,23617
6,30,-263,-70,71,22,60,112,-195,46,23.65,23704
5,31,-264,-70,70,22,59,115,-196,48,23.65,23790
5,30,-264,-70,71,22,58,113,-195,45,23.69,23877
5,31,-262,-70,71,23,59,115,-195,45,23.63,23963
5,31,-263,-69,71,22,58,110,-195,48,23.63,24050
5,30,-263,-70,71,23,60,113,-192,46,23.63,24136
5,31,-264,-70,70,23,56,111,-194,48,23.59,24223
5,30,-262,-70,71,22,57,113,-193,45,23.75,24309
6,30,-262,-70,70,23,59,111,-193,45,23.65,24396
5,31,-263,-70,70,22,56,113,-194,47,23.65,24482
5,31,-265,-69,70,22,60,115,-197,47,23.69,24569
6,30,-265,-70,70,23,56,110,-196,48,23.63,24655
6,29,-263,-70,70,22,56,117,-195,48,23.75,24742
5,31,-262,-70,70,22,58,111,-193,46,23.65,24828
6,31,-263,-70,71,23,56,113,-194,48,23.65,24915
6,30,-263,-70,71,23,55,112,-195,47,23.65,25001
5,29,-260,-70,70,23,59,111,-198,47,23.75,25089
5,31,-265,-70,71,23,56,115,-193,49,23.63,25175
5,30,-263,-70,71,23,56,114,-196,43,23.69,25262
6,30,-263,-70,71,22,58,113,-196,46,23.71,25348
4,31,-263,-70,71,23,56,118,-196,48,23.63,25435
5,31,-264,-70,71,23,57,112,-194,48,23.63,25521
6,30,-264,-70,71,23,60,114,-193,47,23.63,25608
5,30,-265,-70,71,22,58,113,-193,47,23.57,25694
4,31,-263,-70,71,23,61,110,-195,51,23.57,25781
5,30,-264,-69,71,23,58,110,-194,52,23.57,25867
6,30,-263,-70,70,22,60,115,-193,47,23.63,25954
4,31,-262,-70,71,22,59,113,-192,45,23.57,26041
5,31,-262,-70,71,23,60,115,-196,46,23.57,26127
5,30,-262,-70,70,23,58,112,-193,45,23.53,26214
4,29,-261,-70,71,22,55,113,-195,45,23.53,26300
4,31,-264,-70,71,22,57,113,-195,48,23.53,26387
4,29,-265,-70,70,22,57,110,-193,44,23.59,26473
4,31,-263,-70,70,23,59,115,-195,48,23.57,26560
4,31,-264,-70,71,23,56,111,-194,49,23.65,26646
5,30,-265,-70,71,22,57,112,-195,46,23.75,26733
4,31,-263,-70,71,22,58,112,-195,47,23.59,26819
5,32,-263,-70,71,22,55,114,-194,48,23.63,26906
5,30,-262,-70,70,22,58,113,-193,46,23.63,26992
6,30,-263,-70,71,23,57,116,-194,47,23.81,27079
5,30,-264,-69,71,23,57,120,-194,46,23.63,27165
5,29,-262,-70,71,22,59,114,-194,50,23.63,27252
5,30,-263,-70,70,23,56,113,-195,49,23.63,27338
4,31,-264,-70,71,23,58,113,-196,47,23.65,27425
4,30,-263,-70,70,23,57,116,-195,47,23.59,27511
5,30,-264,-70,70,23,57,115,-192,47,23.65,27598
5,29,-262,-70,70,22,57,112,-192,45,23.65,27684
6,29,-262,-70,71,23,55,116,-192,47,23.59,27771
5,30,-263,-70,71,22,55,116,-191,48,23.75,27857
4,28,-263,-70,71,23,57,116,-196,47,23.69,27944
5,30,-262,-71,70,22,59,117,-194,47,23.63,28030
6,30,-263,-71,71,22,56,115,-190,47,23.81,28118
5,30,-263,-70,71,23,55,115,-192,46,23.75,28204
4,29,-264,-70,70,23,58,111,-191,48,23.75,28291
5,30,-262,-70,70,23,60,113,-193,46,23.75,28377
6,30,-264,-70,70,23,58,113,-196,46,23.59,28464
6,31,-273,-69,70,23,57,114,-192,43,23.57,28550
5,31,-266,-70,70,22,57,114,-197,44,23.53,28637
4,29,-262,-70,71,23,59,113,-194,48,23.63,28723
5,30,-264,-70,71,22,57,114,-197,47,23.69,28810
5,31,-264,-70,70,23,60,112,-192,48,23.63,28896
5,30,-262,-70,71,23,59,112,-193,45,23.65,28983
4,30,-264,-70,71,23,56,112,-191,44,23.69,29069
4,31,-263,-70,70,22,58,113,-198,47,23.69,29156
6,30,-275,-66,72,23,58,114,-194,49,23.71,29242
5,29,-276,-66,73,23,58,114,-194,48,23.59,29329
11,33,-293,-71,69,23,55,114,-193,46,23.57,29415
2,31,-252,-70,70,22,58,112,-191,48,23.65,29502
6,31,-264,-69,71,22,59,112,-196,49,23.65,29588
3,31,-260,-70,70,23,59,115,-194,49,23.65,29675
4,31,-262,-69,70,22,61,112,-192,46,23.53,29761
5,31,-263,-70,71,22,58,113,-195,51,23.53,29848
4,31,-262,-70,70,23,56,113,-194,47,23.75,29934
5,29,-263,-70,71,23,56,114,-193,45,23.53,30021
8,30,-263,-70,70,23,58,111,-194,47,23.57,30107
6,29,-262,-70,71,23,57,112,-192,46,23.71,30194
4,31,-265,-70,71,22,57,111,-198,47,23.69,30280
5,31,-255,-70,71,22,61,110,-195,48,23.81,30367
4,30,-262,-71,70,23,58,111,-192,49,23.71,30454
5,30,-261,-70,70,23,58,112,-195,47,23.71,30540
6,30,-262,-70,71,23,54,114,-192,46,23.69,30627
6,30,-264,-70,70,22,57,115,-191,45,23.71,30713
5,31,-263,-70,70,23,56,114,-195,48,23.71,30800
4,30,-262,-70,71,22,56,113,-196,46,23.69,30886
5,30,-262,-70,71,22,59,113,-192,44,23.75,30973
5,31,-265,-70,71,23,56,114,-193,43,23.69,31059
5,31,-262,-70,71,23,56,112,-194,48,23.65,31147
5,30,-264,-70,71,22,55,111,-191,47,23.65,31233
5,31,-262,-70,70,22,55,115,-194,47,23.63,31320
6,31,-265,-70,70,23,59,117,-193,48,23.75,31406
4,31,-262,-70,70,23,58,116,-192,49,23.65,31493
6,30,-263,-70,71,23,60,113,-195,51,23.75,31579
5,31,-262,-70,70,22,56,113,-193,46,23.59,31666
5,29,-263,-70,70,23,59,114,-191,47,23.63,31752
4,29,-264,-70,71,22,58,114,-194,47,23.63,31839
5,29,-264,-70,71,23,60,114,-195,45,23.63,31925
5,30,-263,-70,70,23,58,113,-193,48,23.63,32012
4,30,-263,-70,71,22,56,113,-193,48,23.75,32098
4,30,-264,-70,70,23,58,114,-192,47,23.75,32185
6,30,-263,-70,71,22,58,113,-196,48,23.71,32271
4,30,-260,-69,71,23,58,112,-196,45,23.71,32358
4,29,-264,-70,71,23,57,111,-193,49,23.71,32444
3,30,-264,-70,70,23,59,112,-195,48,23.63,32531
5,30,-265,-2,-258,-258,56,113,-194,46,23.59,32617
4,31,-263,-70,70,23,55,114,-192,44,23.59,32704
4,31,-262,-70,70,22,56,113,-191,48,23.53,32790
4,30,-261,-69,70,23,59,113,-195,47,23.75,32877
5,31,-264,-69,70,22,58,115,-191,45,23.65,32963
5,30,-262,-70,70,22,59,113,-193,48,23.65,33050
3,29,-263,-70,71,22,58,113,-194,48,23.65,33136
5,29,-264,-70,71,22,55,113,-191,46,23.63,33223
6,29,-264,-69,70,23,60,111,-194,46,23.63,33309
4,30,-263,-70,70,23,58,114,-192,51,23.63,33396
5,30,-262,-70,70,23,54,113,-192,47,23.69,33482
3,29,-264,-70,70,23,55,114,-194,46,23.71,33569
5,29,-262,-70,70,23,58,114,-190,46,23.59,33655
4,30,-263,-70,71,22,59,113,-192,49,23.57,33742
4,30,-264,-70,70,23,60,113,-194,46,23.69,33828
5,31,-265,-70,71,23,57,113,-193,46,23.75,33915
5,30,-264,-69,70,23,58,114,-193,47,23.71,34001
4,30,-264,-70,70,23,55,115,-197,47,23.71,34088
5,31,-263,-70,70,23,55,113,-195,49,23.59,34174
5,30,-263,-70,70,23,54,112,-195,46,23.65,34262
4,31,-261,-70,70,23,57,112,-195,46,23.59,34348
4,31,-264,-70,70,23,57,114,-194,45,23.71,34435
5,30,-263,-70,70,22,57,115,-195,48,23.71,34521
4,30,-262,-70,70,23,57,116,-196,47,23.65,34608
4,30,-261,-70,71,23,59,116,-191,46,23.75,34695
4,31,-262,-70,71,23,57,113,-195,49,23.75,34781
4,30,-262,-70,70,22,59,116,-193,46,23.63,34868
3,30,-262,-70,71,22,57,114,-192,44,23.63,34954
4,30,-263,-70,69,23,56,113,-196,49,23.59,35041
4,31,-261,-70,71,22,57,115,-195,47,23.69,35127
5,30,-264,-70,70,23,57,114,-190,47,23.59,35214
4,31,-262,-69,71,23,56,115,-193,47,23.65,35300
5,32,-262,-70,70,22,57,115,-196,47,23.75,35387
5,31,-264,-70,70,22,59,111,-195,47,23.75,35473
4,29,-263,-70,70,23,58,112,-194,46,23.79,35560
5,30,-261,-70,71,23,57,113,-193,47,23.57,35646
5,30,-263,-70,71,23,58,115,-194,46,23.63,35733
4,30,-265,-70,70,23,57,113,-191,47,23.59,35819
4,30,-263,-70,70,22,58,112,-196,49,23.65,35906
4,30,-265,-70,70,23,56,113,-194,49,23.69,35992
5,30,-264,-70,70,23,57,113,-193,49,23.69,36079
3,31,-263,-70,70,23,56,114,-196,47,23.69,36165
4,30,-264,-70,70,22,57,112,-194,47,23.59,36252
3,31,-263,-70,70,22,59,114,-194,50,23.59,36338
4,30,-262,-69,70,22,57,115,-193,48,23.71,36425
5,30,-262,-70,70,23,56,111,-194,47,23.59,36511
6,29,-263,-70,71,23,61,113,-193,47,23.79,36598
4,29,-263,-69,70,22,61,113,-192,47,23.57,36684
4,31,-263,-70,70,23,58,112,-192,48,23.65,36771
4,30,-264,-70,71,23,59,114,-195,47,23.51,36857
4,31,-263,-70,70,22,59,114,-191,47,23.51,36944
4,31,-262,-70,70,22,59,116,-195,46,23.63,37030
6,29,-262,-70,71,22,57,115,-196,47,23.57,37117
5,30,-263,-70,70,23,56,115,-194,44,23.65,37203
5,30,-265,-70,70,23,61,115,-191,46,23.59,37291
4,30,-263,-69,70,23,57,116,-192,50,23.57,37377
5,31,-262,-70,70,23,58,112,-191,49,23.69,37464
6,29,-263,-70,70,23,60,112,-193,49,23.63,37550
4,30,-263,-70,70,22,57,115,-192,44,23.63,37637
4,30,-263,-70,70,23,57,114,-193,48,23.63,37723
5,29,-262,-70,70,22,56,114,-193,48,23.63,37810
4,30,-260,-69,71,23,57,113,-195,48,23.59,37896
6,31,-259,-69,70,23,58,113,-194,49,23.71,37983
5,30,-263,-70,70,22,57,112,-193,48,23.65,38069
4,30,-264,-70,71,23,56,114,-193,48,23.71,38156
5,30,-261,-69,71,23,56,110,-193,48,23.69,38242
5,30,-264,-70,70,23,55,112,-194,44,23.69,38329
5,29,-264,-70,70,22,55,114,-193,48,23.75,38415
4,29,-262,-69,70,22,54,114,-193,49,23.65,38502
5,30,-261,-70,71,23,55,113,-195,45,23.69,38588
4,29,-263,-70,70,22,58,111,-193,46,23.65,38675
5,30,-262,-70,71,23,58,114,-194,49,23.69,38761
6,30,-263,-70,70,23,58,114,-193,47,23.69,38848
4,29,-262,-70,70,23,55,111,-192,49,23.71,38934
4,30,-264,-70,70,22,57,115,-192,45,23.71,39021
5,30,-265,-70,71,23,59,114,-193,46,23.63,39107
3,32,-265,-70,70,23,57,112,-194,47,23.69,39194
5,31,-262,-70,70,23,57,113,-195,47,23.57,39281
4,30,-263,-70,71,23,58,110,-194,48,23.63,39367
4,31,-263,-70,71,23,55,115,-192,48,23.79,39454
4,30,-262,-70,71,23,57,113,-193,50,23.71,39540
5,30,-262,-70,71,23,60,111,-194,48,23.71,39627
4,31,-264,-70,70,23,58,111,-194,49,23.71,39713
5,29,-264,-70,71,23,58,116,-192,49,23.65,39800
5,30,-262,-70,71,23,58,115,-195,47,23.63,39886
5,29,-264,-70,70,23,57,113,-193,47,23.71,39973
4,31,-261,-70,71,23,58,115,-191,48,23.71,40059
5,31,-261,-70,70,23,58,114,-192,46,23.65,40146
5,29,-261,-70,71,23,57,112,-192,47,23.65,40232
3,30,-262,-70,70,22,58,112,-190,47,23.65,40320
4,30,-262,-70,70,23,57,113,-194,46,23.65,40406
4,30,-262,-70,70,23,58,113,-193,47,23.71,40493
5,31,-263,-70,70,22,60,113,-194,47,23.63,40579
4,31,-262,-70,71,23,58,114,-191,46,23.71,40666
4,32,-263,-70,70,22,61,114,-195,47,23.69,40752
5,31,-262,-70,71,23,58,113,-193,48,23.63,40839
4,29,-263,-70,71,22,57,113,-192,45,23.75,40925
5,29,-264,-70,71,23,57,113,-193,48,23.69,41012
4,30,-263,-69,70,23,53,111,-194,48,23.65,41098
4,30,-262,-70,71,22,56,115,-194,47,23.65,41185
5,30,-262,-70,70,23,56,114,-191,48,23.75,41271
2,30,-263,-70,71,22,60,116,-193,49,23.65,41358
4,30,-263,-70,70,22,57,114,-194,45,23.65,41444
4,30,-262,-71,71,22,57,110,-192,49,23.65,41531
4,30,-264,-70,71,23,58,114,-194,48,23.69,41617
5,29,-264,-70,71,23,59,112,-192,50,23.71,41704
4,30,-262,-70,71,23,58,112,-195,44,23.71,41790
5,31,-265,-70,70,22,57,113,-196,48,23.71,41877
4,31,-263,-70,70,23,60,113,-192,48,23.69,41963
4,31,-261,-69,71,23,57,113,-193,46,23.71,42050
5,30,-263,-70,70,23,58,113,-192,48,23.75,42136
4,30,-263,-70,70,22,56,114,-192,48,23.65,42223
4,30,-262,-70,71,22,56,112,-190,54,23.71,42309
5,31,-262,-70,70,23,58,112,-192,50,23.75,42396
3,31,-262,-70,70,22,57,114,-190,48,23.79,42482
5,31,-262,-69,71,23,57,114,-194,46,23.79,42569
5,30,-264,-70,70,22,55,115,-194,45,23.65,42655
5,30,-264,-70,70,22,56,111,-192,46,23.69,42742
4,29,-264,-70,69,22,57,113,-191,47,23.69,42828
4,29,-264,-70,70,23,59,110,-193,47,23.71,42915
5,30,-263,-70,70,22,56,115,-193,50,23.81,43001
4,29,-262,-70,70,23,59,116,-191,49,23.81,43088
4,30,-264,-69,70,23,59,113,-195,47,23.81,43174
3,31,-261,-70,70,23,58,113,-192,45,23.81,43261
4,30,-264,-70,70,23,57,113,-192,48,23.69,43347
4,30,-263,-70,70,23,60,114,-194,47,23.69,43435
5,30,-262,-70,70,22,58,114,-192,48,23.79,43521
4,30,-262,-70,69,24,60,114,-191,46,23.65,43608
4,30,-265,-70,70,22,58,113,-192,47,23.79,43694
5,29,-265,-70,70,23,62,114,-193,49,23.63,43781
4,31,-262,-70,71,23,60,113,-193,46,23.75,43867
5,30,-262,-70,70,23,60,114,-192,50,23.75,43954
4,30,-262,-71,71,22,58,113,-190,48,23.71,44040
4,29,-262,-70,70,23,57,112,-189,50,23.65,44127
4,30,-264,-70,71,23,59,114,-192,47,23.69,44213
5,30,-264,-70,70,23,56,116,-192,46,23.75,44300
4,30,-263,-70,70,23,58,114,-194,49,23.69,44386
5,30,-264,-70,71,23,57,112,-192,46,23.65,44473
3,31,-261,-70,71,23,57,112,-193,44,23.69,44559
3,31,-264,-70,70,23,57,112,-192,47,23.69,44646
5,30,-263,-69,70,23,59,112,-193,47,23.69,44733
5,30,-263,-70,70,23,56,113,-193,47,23.69,44819
5,29,-263,-70,70,23,58,115,-190,45,23.85,44906
4,30,-262,-70,71,23,56,113,-193,44,23.71,44992
5,29,-260,-70,70,23,57,115,-194,48,23.71,45079
4,31,-262,-70,70,23,57,113,-191,49,23.79,45165
4,32,-262,-70,70,23,56,112,-193,47,23.69,45252
6,30,-261,-71,70,23,57,112,-189,48,23.65,45338
5,30,-261,-70,70,22,57,115,-192,46,23.65,45425
4,30,-262,-70,71,23,58,114,-192,45,23.75,45511
4,30,-262,-70,70,22,58,115,-191,45,23.65,45598
4,29,-261,-70,70,23,54,111,-191,49,23.69,45684
5,29,-263,-70,70,23,59,113,-191,48,23.79,45771
4,31,-261,-70,71,23,56,112,-191,47,23.79,45857
5,30,-262,-70,70,23,56,113,-193,48,23.69,45944
3,30,-260,-70,71,23,58,113,-195,46,23.69,46030
3,31,-262,-70,70,23,58,114,-194,46,23.69,46117
5,29,-262,-70,70,23,59,115,-191,48,23.59,46203
4,29,-263,-70,70,23,58,113,-193,50,23.71,46290
3,30,-262,-70,70,23,57,114,-190,48,23.69,46376
4,30,-262,-70,70,23,60,111,-191,50,23.59,46464
4,30,-266,-70,70,23,58,113,-192,48,23.71,46550
4,30,-262,-70,70,23,58,116,-193,46,23.75,46637
4,30,-262,-70,70,22,57,115,-194,48,23.75,46723
4,30,-265,-70,70,22,57,114,-192,50,23.75,46810
4,31,-263,-70,70,23,59,114,-193,46,23.65,46896
4,31,-261,-70,70,23,57,115,-191,47,23.63,46983
4,30,-264,-70,70,22,57,115,-192,48,23.65,47069
4,31,-264,-70,70,23,58,112,-196,47,23.79,47156
4,30,-262,-70,70,23,58,111,-194,47,23.81,47242
4,31,-263,-70,70,23,58,111,-191,47,23.81,47329
5,30,-263,-70,70,23,57,116,-194,48,23.79,47415
4,31,-264,-70,70,23,61,113,-193,47,23.69,47502
3,31,-262,-70,70,23,59,112,-191,44,23.69,47588
3,30,-264,-70,70,23,58,115,-192,49,23.69,47675
4,32,-262,-70,70,23,58,111,-190,47,23.87,47761
5,30,-263,-70,70,23,58,113,-193,46,23.75,47848
5,31,-261,-70,70,22,60,114,-191,51,23.79,47934
5,29,-264,-70,70,23,59,115,-191,46,23.85,48021
5,29,-264,-69,70,22,59,114,-190,49,23.79,48107
3,31,-263,-70,70,23,58,114,-191,44,23.79,48194
4,31,-263,-70,70,23,59,113,-189,50,23.79,48280
5,30,-263,-70,70,22,57,113,-192,50,23.71,48367
4,31,-263,-70,70,23,56,114,-188,46,23.79,48453
3,31,-263,-70,70,23,60,114,-192,48,23.79,48540
6,32,-264,-70,69,23,59,112,-192,50,23.81,48626
4,31,-258,-70,70,23,58,114,-189,48,23.87,48713
3,30,-261,-70,70,23,58,111,-192,47,23.81,48799
4,31,-262,-70,70,22,56,112,-191,46,23.79,48886
3,31,-266,-69,71,23,57,113,-193,48,23.79,48972
3,30,-262,-2,-258,-258,58,112,-191,46,23.87,49059
3,31,-265,-70,70,22,56,113,-192,46,23.81,49146
4,30,-262,-71,70,23,62,113,-190,48,23.75,49232
5,32,-266,-70,70,24,60,111,-191,48,23.85,49319
3,30,-259,-70,70,22,57,113,-191,47,23.85,49405
4,30,-263,-69,71,22,59,111,-191,48,24.05,49492
3,30,-260,-70,70,24,60,115,-191,46,23.81,49579
3,30,-263,-70,70,21,57,111,-189,49,23.75,49666
4,29,-265,-70,70,22,60,112,-193,49,23.75,49752
4,30,-261,-70,70,24,57,112,-192,44,23.81,49839
4,30,-265,-70,70,23,59,112,-188,50,23.79,49925
4,31,-261,-70,70,22,58,111,-191,46,23.79,50012
3,31,-265,-70,70,23,57,111,-187,48,23.87,50098
3,31,-263,-70,70,24,57,114,-191,46,23.81,50185
3,31,-265,-70,70,21,58,114,-191,46,23.75,50271
3,31,-261,-70,70,22,59,111,-192,46,23.69,50358
4,30,-262,-69,70,25,56,112,-192,46,23.69,50444
3,31,-263,-69,70,21,55,110,-189,49,23.85,50531
4,30,-261,-70,70,22,59,112,-194,48,23.87,50617
3,29,-264,-69,70,23,56,112,-192,47,23.81,50704
5,32,-262,-70,70,24,54,111,-194,47,23.81,50790
4,31,-264,-70,70,21,58,112,-191,47,23.79,50877
4,29,-265,-69,70,23,60,114,-193,45,23.81,50963
4,30,-264,-70,70,24,60,111,-190,48,23.85,51050
3,30,-265,-69,70,22,58,113,-191,51,23.97,51136
4,30,-262,-70,70,22,56,114,-191,49,23.97,51223
3,31,-263,-70,70,23,59,114,-192,46,23.85,51309
4,31,-263,-70,70,23,55,111,-192,47,23.93,51396
5,30,-264,-70,70,23,55,114,-190,47,23.79,51482
4,31,-261,-70,71,22,58,113,-191,48,23.85,51569
3,29,-263,-70,70,23,57,114,-189,51,23.79,51655
4,30,-263,-70,70,23,58,113,-192,47,23.87,51742
4,30,-264,-70,70,22,58,112,-190,47,23.81,51828
3,29,-262,-70,70,23,56,111,-193,48,23.81,51915
4,33,-262,-70,70,24,60,112,-190,46,23.79,52001
3,31,-262,-71,70,22,59,115,-191,47,23.69,52088
3,30,-257,-70,70,23,62,112,-190,47,23.75,52174
3,31,-258,-71,69,23,59,112,-191,48,23.81,52261
3,32,-263,-71,71,22,57,114,-190,47,23.75,52347
3,31,-263,-70,70,22,57,111,-194,47,23.81,52434
4,31,-259,-71,70,24,59,113,-192,47,23.87,52520
4,30,-261,-68,70,22,57,114,-194,49,23.79,52608
3,31,-259,-70,70,22,56,113,-191,49,23.79,52694
4,29,-262,-70,70,24,57,113,-193,47,23.79,52781
4,31,-263,-70,71,22,59,113,-191,51,23.79,52867
3,32,-265,-69,70,22,58,112,-189,46,23.91,52954
3,30,-263,-70,70,23,59,114,-190,50,23.85,53040
4,31,-264,-70,70,22,57,113,-191,48,23.79,53127
4,30,-263,-70,70,22,59,113,-191,47,23.71,53213
4,28,-263,-70,70,23,61,112,-193,46,23.71,53300
3,31,-265,-70,70,21,61,116,-191,45,23.71,53386
5,29,-266,-70,71,22,59,111,-190,49,23.75,53473
4,31,-260,-70,70,23,59,111,-191,48,23.69,53560
4,31,-264,-71,70,22,60,108,-191,50,23.81,53646
4,31,-264,-69,70,22,60,115,-191,45,23.75,53733
3,31,-267,-70,70,22,59,111,-187,49,23.79,53819
3,30,-267,-70,70,22,57,113,-191,48,23.63,53906
4,30,-261,-70,70,22,59,114,-191,48,23.71,53992
4,30,-263,-70,70,23,58,115,-191,49,23.71,54079
5,30,-262,-70,70,23,57,117,-194,47,23.59,54165
4,30,-265,-70,70,23,59,113,-190,50,23.69,54252
4,30,-265,-70,70,23,57,114,-190,49,23.63,54338
4,47,-259,-70,70,24,58,110,-190,46,23.75,54425
15,-1,-256,-70,71,19,58,112,-194,47,23.71,54511
4,32,-263,-69,70,26,63,114,-192,49,23.71,54598
3,31,-263,-70,70,21,62,113,-191,48,23.69,54684
4,30,-263,-70,70,24,56,118,-192,47,23.69,54771
5,31,-261,-70,70,26,62,115,-192,47,23.65,54857
5,30,-264,-70,71,20,60,114,-190,47,23.75,54944
3,31,-262,-70,70,22,60,114,-191,47,23.81,55030
4,31,-265,-70,70,26,60,114,-187,46,23.79,55117
5,30,-264,-71,70,21,64,111,-189,47,23.75,55203
3,29,-263,-71,70,21,60,114,-189,48,23.75,55290
4,30,-262,-70,70,26,63,113,-192,47,23.79,55376
5,31,-262,-71,70,23,60,112,-190,48,23.69,55463
4,31,-262,-70,70,21,61,112,-193,47,23.69,55549
4,30,-262,-70,70,23,61,113,-192,47,23.63,55636
4,29,-263,-70,70,25,63,112,-189,49,23.65,55723
3,32,-263,-70,70,21,62,113,-192,45,23.57,55810
4,31,-264,-71,70,22,61,114,-194,48,23.63,55896
4,29,-262,-72,71,24,61,110,-190,50,23.59,55983
5,29,-264,-69,69,22,62,115,-189,45,23.57,56069
4,30,-253,-71,71,21,61,112,-191,46,23.81,56156
4,32,-259,-70,70,24,61,113,-188,44,23.81,56242
4,30,-264,-70,70,22,64,115,-190,45,23.71,56329
4,30,-261,-70,70,22,59,111,-190,46,23.57,56415
4,31,-262,-70,70,24,61,113,-191,45,23.69,56502
3,31,-264,-70,70,23,60,113,-189,50,23.63,56588
-2,19,-254,-70,70,22,62,112,-194,49,23.59,56675
3,-36,-252,-71,70,21,60,110,-179,50,23.71,56761
4,31,-263,-70,70,22,60,110,-187,50,23.63,56848
3,31,-259,-70,70,25,59,112,-190,45,23.63,56934
5,31,-265,-70,70,25,59,114,-192,51,23.69,57021
6,30,-295,-72,70,18,65,114,-185,46,23.57,57107
3,29,-263,-69,70,24,64,115,-187,47,23.63,57194
2,30,-257,-70,70,27,63,114,-190,48,23.65,57280
3,31,-276,-70,70,20,63,114,-191,47,23.65,57367
2,30,-265,-70,70,22,61,113,-190,47,23.69,57453
1,28,-275,-67,71,31,59,110,-189,48,23.71,57540
6,29,-264,-71,71,27,63,111,-190,46,23.71,57626
3,32,-250,-70,69,23,63,112,-185,48,23.57,57713
7,25,-258,-70,63,43,61,115,-192,48,23.53,57799
15,14,-254,-73,62,146,61,115,-193,47,23.71,57886
11,25,-272,-79,35,317,59,113,-193,48,23.63,57973
2,28,-283,-75,24,403,53,116,-200,50,23.71,58059
-1,43,-280,-72,26,452,44,116,-212,49,23.87,58146
-23,39,-315,-79,31,399,43,116,-215,49,23.79,58232
-21,46,-207,-71,56,136,39,114,-218,49,23.69,58319
9,37,-241,-72,70,29,39,118,-215,48,23.69,58406
2,29,-259,-74,72,2,37,117,-217,48,23.75,58492
2,28,-262,-69,70,34,44,113,-218,47,23.71,58579
6,33,-263,-69,70,32,42,115,-217,46,23.79,58665
3,31,-262,-72,71,8,42,114,-216,52,23.75,58752
1,29,-263,-69,70,22,40,117,-214,46,23.79,58839
-16,30,-248,-68,70,34,39,120,-212,50,23.79,58926
-16,14,-258,-71,70,17,40,114,-215,47,23.75,59012
-8,26,-261,-71,71,15,45,116,-214,50,23.75,59099
1,31,-263,-69,70,33,44,117,-216,47,23.79,59185
5,32,-262,-70,70,26,43,118,-216,48,23.75,59272
2,32,-261,-71,70,14,43,116,-212,46,23.59,59358
2,30,-263,-69,70,28,42,116,-214,48,23.65,59445
6,31,-261,-69,70,30,42,114,-212,49,23.75,59531
2,31,-262,-71,70,16,44,113,-215,45,23.59,59618
1,30,-263,-70,70,22,42,118,-211,48,23.71,59704
4,30,-261,-69,70,30,42,116,-210,45,23.71,59791
4,31,-263,-71,70,22,41,116,-209,48,23.65,59877
1,30,-262,-71,71,18,43,116,-210,46,23.75,59964
2,31,-264,-70,70,27,45,116,-209,49,23.69,60050
5,32,-264,-71,70,25,46,115,-210,48,23.71,60137
3,31,-263,-71,71,18,42,118,-207,49,23.79,60223
2,30,-264,-70,70,23,46,118,-202,48,23.69,60310
2,31,-262,-70,70,27,47,122,-197,48,23.71,60396
4,31,-263,-70,70,21,48,128,-193,49,23.71,60483
3,31,-262,-71,70,21,50,122,-195,50,23.71,60569
2,31,-264,-70,70,26,49,121,-193,51,23.69,60656
3,32,-262,-70,70,24,51,119,-200,48,23.75,60742
2,31,-263,-70,70,21,49,124,-198,48,23.79,60829
2,30,-262,-70,70,23,51,124,-196,50,23.71,60915
2,31,-263,-70,69,25,49,122,-194,47,23.75,61002
3,31,-264,-70,70,22,50,122,-197,51,23.75,61088
2,17,-253,-70,70,22,51,187,-196,49,23.75,61175
-3,-10,-259,-70,70,26,50,123,-193,50,23.63,61261
8,49,-266,-70,70,23,52,120,-199,45,23.69,61348
2,31,-261,-70,71,20,50,123,-196,48,23.75,61434
2,31,-261,-70,70,23,49,125,-198,47,23.69,61521
3,32,-262,-70,70,27,50,124,-196,47,23.69,61607
4,30,-262,-71,71,21,49,123,-197,52,23.71,61694
2,30,-263,-71,70,19,49,122,-194,47,23.71,61780
1,32,-263,-70,70,26,47,124,-193,45,23.81,61868
3,29,-262,-70,70,25,50,127,-191,48,23.81,61954
2,31,-263,-70,71,20,48,127,-195,50,23.71,62041
2,32,-260,-69,70,23,49,124,-197,50,23.57,62127
2,31,-264,-70,70,27,45,119,-200,50,23.69,62214
4,31,-264,-71,70,22,44,118,-203,47,23.59,62301
3,31,-263,-70,70,21,46,122,-201,46,23.71,62387
2,30,-262,-70,69,25,44,117,-201,46,23.57,62474
4,31,-264,-70,70,25,48,121,-201,46,23.79,62560
2,30,-263,-70,70,21,48,123,-201,50,23.79,62647
1,31,-264,-71,71,22,45,120,-196,47,23.59,62733
3,30,-263,-70,70,26,46,120,-200,49,23.79,62820
3,31,-263,-70,70,22,47,119,-198,48,23.75,62906
2,30,-261,-70,70,21,47,119,-200,47,23.59,62993
3,31,-263,-70,70,25,50,121,-200,46,23.71,63079
3,31,-263,-70,70,24,46,120,-199,48,23.71,63166
3,30,-264,-71,70,21,45,119,-200,46,23.79,63252
2,31,-262,-70,70,24,45,120,-174,47,23.79,63339
11,39,-278,-70,70,24,32,186,-202,48,23.59,63425
15,54,-268,-72,68,24,47,117,-206,49,23.63,63512
7,49,-268,-70,71,22,46,113,-195,46,23.57,63598
3,27,-261,-70,70,21,48,119,-191,48,23.85,63685
2,31,-262,-70,70,25,46,121,-199,50,23.69,63771
2,31,-264,-70,70,26,47,119,-200,47,23.87,63858
3,30,-264,-71,70,20,48,119,-199,43,23.71,63944
1,31,-264,-70,70,23,48,120,-197,48,23.71,64031
3,31,-265,-70,70,27,47,120,-197,46,23.69,64117
4,30,-262,-71,70,22,49,120,-201,47,23.81,64204
2,31,-265,-71,70,20,46,120,-201,45,23.75,64290
2,32,-262,-70,70,26,48,119,-202,48,23.75,64377
3,31,-263,-71,70,25,45,117,-202,49,23.79,64463
2,30,-261,-70,71,21,45,116,-209,47,23.85,64550
2,31,-262,-70,70,22,44,119,-209,46,23.81,64636
3,28,-275,-69,71,26,43,116,-206,50,23.79,64723
3,31,-263,-70,70,22,47,116,-210,48,23.79,64809
3,30,-260,-70,69,21,42,118,-209,47,23.71,64897
2,31,-263,-71,70,25,45,117,-208,49,23.79,64983
3,30,-264,-71,70,24,43,116,-207,46,23.63,65070
4,30,-264,-71,70,22,45,116,-209,47,23.79,65156
2,30,-263,-70,70,23,42,114,-209,47,23.87,65243
3,31,-264,-70,70,25,45,115,-210,49,23.81,65329
3,32,-266,-70,70,24,42,115,-213,46,23.87,65416
1,31,-263,-70,69,21,43,116,-211,49,23.87,65502
2,30,-252,-69,70,22,41,113,-213,46,23.81,65589
-3,28,-254,-71,70,25,47,115,-223,46,23.69,65675
12,-11,-258,-71,70,22,41,116,-211,47,23.75,65762
-14,60,-267,-71,70,22,36,115,-215,46,23.81,65849
6,36,-270,-70,70,25,50,118,-211,46,23.79,65935
4,30,-264,-70,70,24,44,115,-213,48,23.87,66022
3,31,-262,-71,70,20,41,116,-213,48,23.87,66108
2,31,-263,-70,70,24,44,117,-213,48,23.79,66195
3,31,-263,-71,69,26,42,117,-210,47,23.79,66281
3,30,-262,-71,70,21,42,116,-214,45,23.85,66368
1,29,-261,-70,70,21,41,115,-212,47,23.97,66454
2,30,-261,-71,69,27,39,115,-212,49,23.79,66541
4,31,-264,-69,70,23,42,114,-213,46,23.85,66627
3,30,-263,-71,70,21,41,114,-213,49,23.87,66714
1,30,-263,-71,70,23,41,117,-214,47,23.87,66800
2,31,-262,-70,70,24,44,115,-219,49,23.85,66887
3,31,-269,-70,70,22,43,117,-214,46,23.85,66973
2,31,-265,-70,70,22,44,115,-215,46,23.85,67060
2,31,-263,-70,70,24,40,118,-211,48,23.91,67146
4,31,-265,-71,70,24,41,115,-215,45,23.71,67233
3,32,-262,-70,70,21,42,116,-214,46,23.79,67319
1,31,-262,-70,70,24,40,115,-213,47,23.85,67406
3,30,-263,-71,70,24,39,114,-213,48,23.87,67492
2,30,-264,-70,70,22,42,116,-213,45,23.91,67579
2,31,-263,-70,70,23,44,115,-212,47,23.99,67665
3,31,-266,-70,70,25,41,118,-214,50,23.99,67752
5,18,-261,-71,70,23,41,121,-160,47,23.79,67838
11,25,-270,-70,70,22,41,114,-211,47,23.81,67926
-3,21,-260,-70,70,24,45,118,-211,48,23.75,68012
22,32,-264,-71,70,23,40,115,-216,49,23.81,68099
10,56,-265,-70,70,23,60,107,-213,47,23.87,68186
-5,25,-264,-71,70,21,63,111,-215,47,23.71,68272
2,29,-264,-70,70,22,43,116,-212,48,23.71,68359
3,30,-263,-69,70,28,42,116,-213,49,23.71,68445
3,31,-264,-71,70,21,39,114,-215,48,23.75,68532
0,31,-244,-70,71,20,42,116,-212,48,23.63,68618
2,30,-262,-70,69,27,41,114,-213,50,23.71,68705
4,32,-263,-69,70,25,44,114,-214,45,23.69,68791
2,29,-264,-71,70,19,42,115,-213,49,23.69,68878
1,31,-263,-70,70,24,43,111,-214,48,23.69,68964
2,31,-263,-70,70,27,40,116,-214,49,23.63,69051
3,31,-264,-70,70,21,43,114,-213,46,23.63,69137
2,31,-263,-71,70,21,42,115,-214,47,23.59,69224
2,31,-263,-70,69,25,40,115,-213,46,23.79,69310
2,32,-263,-70,70,23,44,115,-214,46,23.75,69397
2,31,-263,-71,69,21,39,115,-212,48,23.79,69483
2,31,-263,-71,70,24,40,116,-214,47,23.65,69570
3,32,-263,-70,70,25,43,115,-213,47,23.65,69656
2,32,-263,-70,70,22,43,117,-214,50,23.65,69743
3,32,-262,-70,70,23,45,117,-211,49,23.63,69829
3,30,-265,-70,70,24,43,114,-212,49,23.63,69916
2,32,-263,-70,70,24,42,116,-212,47,23.47,70002
11,28,-272,-70,70,22,17,243,-213,48,23.63,70089
-6,37,-256,-70,70,23,30,137,-210,47,23.57,70175
3,30,-263,-70,70,24,42,112,-214,48,23.65,70262
-13,28,-264,-70,70,22,45,104,-214,45,23.65,70348
9,64,-264,-70,70,23,40,117,-220,48,23.71,70435
0,27,-264,-70,69,23,45,110,-213,47,23.65,70522
2,31,-263,-70,70,24,42,116,-214,50,23.65,70608
2,31,-263,-70,70,22,40,114,-213,51,23.69,70695
2,29,-263,-71,70,21,39,115,-213,47,23.59,70781
2,30,-262,-70,70,26,40,115,-212,48,23.65,70868
3,32,-263,-70,70,24,39,117,-213,46,23.71,70955
2,30,-263,-71,71,20,43,114,-212,49,23.63,71042
2,30,-261,-70,70,24,45,117,-216,50,23.69,71128
2,31,-262,-69,70,25,41,113,-211,48,23.65,71215
2,32,-262,-71,70,21,42,114,-213,48,23.65,71301
3,30,-262,-70,70,22,42,118,-214,46,23.65,71388
2,32,-262,-70,70,25,41,120,-212,48,23.63,71474
3,31,-262,-70,70,24,43,118,-213,47,23.79,71561
3,29,-264,-70,70,21,41,117,-212,47,23.63,71647
3,32,-264,-70,70,24,40,119,-213,49,23.63,71734
2,31,-264,-70,70,24,44,118,-215,47,23.65,71820
3,30,-263,-70,70,23,41,116,-213,50,23.59,71907
2,31,-263,-70,70,23,45,113,-212,48,23.59,71993
3,31,-263,-70,69,24,44,118,-211,49,23.63,72080
2,31,-262,-70,70,23,41,118,-213,49,23.79,72166
2,31,-261,-71,70,22,40,115,-212,48,23.59,72253
-1,40,-267,-71,70,22,32,127,-153,45,23.69,72339
4,34,-272,-70,70,24,43,114,-211,48,23.63,72426
2,31,-263,-70,70,23,40,112,-211,49,23.69,72512
18,-2,-262,-70,70,23,41,106,-212,47,23.63,72599
2,30,-263,-70,70,23,42,119,-213,48,23.63,72685
8,17,-267,-70,70,24,44,109,-201,47,23.59,72772
-3,27,-261,-70,71,22,43,116,-206,51,23.65,72858
2,29,-262,-71,70,20,44,116,-214,50,23.75,72945
2,31,-263,-69,70,29,43,116,-213,48,23.69,73031
5,31,-263,-70,69,24,45,116,-211,47,23.63,73118
2,30,-264,-71,70,18,42,116,-216,48,23.71,73204
2,30,-262,-70,70,25,42,115,-214,47,23.65,73291
3,31,-261,-70,70,26,41,118,-210,47,23.69,73377
5,30,-264,-70,72,21,42,116,-213,48,23.69,73464
1,31,-264,-70,70,21,43,118,-210,49,23.63,73550
2,30,-262,-70,70,26,42,112,-211,48,23.71,73637
3,30,-262,-70,71,24,38,117,-212,46,23.65,73723
1,30,-262,-71,70,20,40,117,-212,48,23.71,73810
3,31,-261,-70,70,24,39,115,-211,47,23.75,73896
3,31,-262,-71,70,25,42,118,-210,49,23.69,73984
2,31,-261,-71,71,21,43,116,-210,48,23.69,74070
2,31,-263,-70,70,22,43,114,-213,47,23.69,74157
3,31,-262,-70,70,25,39,114,-211,46,23.63,74243
2,32,-260,-70,70,23,42,117,-210,46,23.71,74330
2,32,-261,-71,70,22,42,117,-212,45,23.81,74416
1,31,-262,-70,70,25,42,115,-213,45,23.59,74503
3,24,-257,-70,70,24,43,114,-216,47,23.63,74589
3,29,-267,-71,70,21,41,116,-211,46,23.63,74676
2,31,-263,-70,70,23,43,119,-212,49,23.71,74762
-14,62,-266,-70,70,26,41,107,-211,51,23.71,74849
2,31,-262,-71,70,22,42,117,-213,53,23.71,74936
-5,-2,-264,-71,71,22,35,107,-212,50,23.63,75022
0,21,-250,-69,70,25,44,115,-211,49,23.65,75109
2,33,-262,-70,70,24,42,118,-213,51,23.69,75195
5,32,-262,-70,70,22,42,115,-213,46,23.85,75282
1,31,-264,-71,70,21,41,113,-211,45,23.71,75368
3,30,-263,-70,70,25,45,115,-211,50,23.71,75455
2,32,-263,-70,70,25,39,114,-211,45,23.71,75541
2,32,-263,-2,-258,-258,41,115,-209,50,23.71,75628
3,30,-263,-70,70,23,42,115,-213,46,23.79,75714
2,31,-264,-70,69,25,43,115,-214,50,23.71,75801
3,31,-263,-70,71,22,39,116,-212,50,23.79,75887
2,31,-262,-70,69,22,40,117,-214,48,23.87,75974
3,30,-263,-70,70,24,42,113,-214,52,23.81,76060
3,31,-263,-70,70,24,44,116,-212,47,23.85,76147
2,31,-264,-70,70,22,44,115,-212,48,23.85,76233
2,31,-268,-71,70,24,42,115,-211,46,23.85,76320
3,31,-266,-69,71,24,45,115,-214,47,23.79,76406
3,27,-255,-71,71,25,42,117,-213,47,23.79,76493
2,30,-259,-70,69,22,44,117,-211,49,23.81,76579
3,30,-263,-71,70,21,42,115,-212,48,23.97,76666
1,31,-264,-70,70,25,44,116,-211,47,23.85,76752
3,41,-267,-71,70,24,16,216,-216,48,23.79,76839
2,30,-263,-71,70,21,42,115,-210,48,23.81,76925
1,31,-264,-2,-258,-258,42,119,-214,44,23.81,77012
-7,3,-260,-72,69,24,43,111,-213,47,23.87,77099
2,31,-263,-70,69,21,42,116,-214,49,23.81,77186
1,27,-254,-70,70,24,33,108,-210,49,23.87,77272
4,39,-260,-70,69,24,53,114,-214,49,23.97,77359
1,34,-270,-70,70,21,47,115,-211,49,23.85,77445
3,30,-264,-70,71,20,43,115,-210,46,23.91,77532
2,30,-264,-70,70,27,42,116,-213,47,23.81,77618
4,31,-263,-70,70,26,41,117,-212,46,23.79,77705
2,29,-263,-71,70,19,41,116,-212,47,23.79,77791
1,31,-263,-71,70,22,40,115,-213,48,23.79,77878
3,31,-248,-70,70,27,43,117,-212,48,23.79,77965
3,31,-261,-70,70,23,42,118,-212,48,23.81,78051
1,32,-274,-71,70,20,43,111,-214,48,23.87,78138
1,31,-265,-70,69,25,44,116,-211,49,23.85,78224
2,31,-262,-70,70,25,46,117,-215,49,23.81,78311
2,30,-263,-71,70,20,38,116,-217,46,23.69,78397
2,29,-262,-71,70,22,44,116,-212,49,23.69,78484
2,31,-262,-70,69,25,44,113,-212,48,23.71,78570
4,33,-263,-70,70,22,43,115,-211,48,23.87,78657
1,30,-264,-70,70,21,43,113,-211,49,23.87,78743
2,32,-262,-70,70,24,42,116,-210,45,23.71,78830
2,31,-263,-70,70,24,41,114,-213,48,23.85,78916
2,31,-263,-70,70,22,38,116,-214,47,23.71,79003
5,18,-258,-70,70,24,17,191,-212,46,23.85,79089
2,32,-265,-70,70,24,42,118,-210,48,23.85,79176
2,31,-262,-71,70,23,45,117,-205,48,23.85,79262
1,77,-267,-69,70,24,44,117,-208,48,23.69,79349
14,-6,-261,-70,70,23,43,119,-204,44,23.85,79435
2,31,-265,-70,70,24,44,117,-203,48,23.79,79522
0,1,-264,-70,70,22,46,116,-206,47,23.81,79608
7,31,-267,-70,70,22,49,118,-204,49,23.87,79695
2,30,-264,-70,71,22,44,117,-206,49,23.93,79781
3,31,-263,-69,70,25,44,116,-204,48,23.85,79868
2,32,-264,-71,70,21,45,118,-206,47,23.85,79954
1,31,-263,-70,70,22,46,116,-205,46,23.85,80041
3,32,-263,-70,70,25,44,117,-207,46,23.79,80128
3,32,-263,-70,69,24,46,120,-200,48,23.87,80215
2,29,-263,-70,70,20,46,117,-202,48,23.75,80301
2,31,-264,-71,70,23,46,120,-205,49,23.85,80388
3,32,-263,-70,69,25,48,120,-201,48,23.81,80474
2,31,-262,-70,70,22,48,117,-204,48,23.79,80561
2,31,-265,-70,70,22,46,120,-203,46,23.87,80647
2,31,-264,-70,70,24,47,117,-206,46,23.87,80734
3,30,-263,-70,69,24,46,118,-201,51,23.71,80820
2,32,-263,-70,70,22,47,116,-204,48,23.79,80907
2,32,-264,-70,70,23,42,116,-203,51,23.91,80993
2,29,-263,-70,70,24,46,118,-204,50,23.71,81080
3,31,-262,-70,70,23,42,118,-205,47,23.87,81166
2,30,-263,-71,70,22,50,118,-202,46,23.93,81253
-5,38,-261,-70,70,24,17,217,-207,45,23.85,81339
2,31,-264,-70,70,24,46,115,-203,46,23.85,81426
2,29,-262,-70,70,22,45,117,-205,49,23.79,81512
10,24,-264,-70,70,23,40,110,-206,49,23.97,81599
-14,64,-269,-70,70,25,47,118,-206,50,23.85,81686
3,31,-263,-70,70,25,48,115,-205,47,23.71,81772
7,37,-269,-70,70,24,45,117,-207,48,23.91,81859
4,11,-258,-71,70,24,45,114,-208,47,23.79,81945
0,26,-264,-70,69,23,49,116,-210,47,23.93,82032
1,32,-263,-71,70,21,43,113,-205,50,23.85,82118
1,31,-261,-71,70,20,46,116,-207,48,23.85,82205
2,31,-263,-71,70,25,41,116,-207,46,23.81,82291
3,32,-266,-70,70,23,46,116,-206,47,23.85,82378
2,30,-262,-70,70,19,45,118,-208,47,23.81,82464
1,31,-262,-70,70,26,44,116,-205,47,23.79,82551
3,30,-259,-72,70,23,44,116,-206,48,23.93,82637
2,31,-262,-70,70,18,42,119,-206,47,23.93,82724
2,30,-262,-70,69,29,44,116,-211,48,23.91,82810
3,33,-264,-70,70,24,46,119,-207,49,23.91,82897
2,30,-265,-71,70,20,45,116,-208,48,23.91,82983
1,30,-263,-71,69,23,45,118,-208,44,23.91,83070
2,31,-263,-70,69,27,46,114,-204,48,23.93,83156
3,30,-264,-70,70,23,43,114,-209,52,23.79,83244
2,31,-262,-70,70,21,45,116,-204,46,23.87,83330
2,31,-262,-70,70,24,44,116,-207,48,23.81,83417
2,32,-259,-70,70,26,43,118,-208,50,23.93,83503
4,23,-257,-71,70,22,44,114,-207,47,23.87,83590
1,31,-263,-70,70,23,42,118,-204,50,23.87,83676
3,30,-263,-70,69,25,43,121,-206,47,23.75,83763
2,31,-261,-70,70,23,45,116,-206,50,23.87,83849
16,-1,-263,-70,70,22,45,116,-209,49,23.79,83936
3,29,-263,-70,69,24,42,118,-205,46,23.87,84022
2,31,-263,-70,70,23,42,118,-205,46,23.85,84109
6,54,-263,-71,70,22,57,116,-205,47,23.93,84195
2,30,-261,-70,70,25,47,116,-205,48,23.87,84282
2,31,-262,-70,70,21,45,116,-204,48,23.81,84368
2,31,-261,-71,70,24,42,118,-206,47,23.81,84455
2,31,-263,-70,70,26,47,119,-207,49,23.79,84541
3,31,-263,-71,70,19,45,119,-205,47,23.81,84628
2,30,-262,-70,69,21,42,117,-210,48,23.79,84714
2,31,-264,-70,69,26,43,116,-207,47,23.87,84801
1,32,-263,-71,70,21,43,115,-204,44,23.81,84887
2,30,-263,-71,70,20,43,118,-206,50,23.81,84974
1,30,-262,-70,70,25,45,115,-208,48,23.97,85060
2,31,-264,-70,69,24,45,115,-205,47,23.97,85147
3,31,-263,-71,70,22,45,119,-206,49,23.79,85233
2,31,-263,-70,70,23,45,119,-206,52,23.87,85320
3,32,-262,-70,70,25,45,120,-207,46,23.71,85406
2,30,-263,-70,70,23,41,118,-208,45,23.91,85493
1,30,-263,-70,70,22,45,117,-208,48,23.85,85579
2,30,-262,-71,70,25,45,117,-208,47,23.79,85666
2,30,-263,-70,70,24,26,195,-211,47,23.75,85752
15,19,-266,-70,70,21,19,185,-204,44,23.81,85839
1,31,-263,-70,70,24,41,118,-206,50,23.81,85926
2,31,-264,-70,70,24,41,120,-207,48,23.75,86012
2,30,-264,-70,71,22,46,118,-204,48,23.65,86099
17,-7,-260,-70,70,22,42,116,-207,47,23.69,86185
2,30,-263,-70,70,25,41,119,-208,49,23.71,86273
2,31,-264,-71,70,22,46,116,-205,49,23.81,86359
2,0,-268,-71,70,22,39,115,-207,51,23.69,86446
-2,21,-262,-70,70,23,45,114,-202,48,23.79,86532
1,35,-264,-70,70,23,43,119,-194,49,23.79,86619
2,31,-265,-70,70,22,43,119,-204,46,23.79,86705
1,31,-261,-70,70,21,46,117,-205,46,23.71,86792
2,30,-261,-70,69,26,43,118,-199,49,23.71,86878
2,31,-265,-71,70,23,44,118,-201,48,23.65,86965
2,30,-262,-70,70,21,43,119,-204,49,23.63,87051
1,30,-262,-71,70,23,42,118,-203,47,23.79,87138
1,31,-263,-70,70,25,42,116,-202,51,23.79,87224
2,31,-262,-70,70,23,44,118,-205,50,23.79,87311
2,31,-261,-70,70,21,44,120,-204,46,23.69,87397
2,31,-263,-70,70,25,49,118,-202,51,23.69,87484
3,31,-262,-70,70,24,46,118,-200,46,23.75,87570
2,31,-262,-70,70,22,48,121,-202,48,23.71,87657
2,31,-261,-70,70,22,43,120,-201,47,23.75,87743
2,31,-263,-70,70,25,45,119,-201,49,23.75,87830
2,30,-260,-70,71,23,42,117,-203,48,23.79,87916
2,31,-264,-70,70,21,52,156,-203,49,23.79,88003
-1,53,-274,-70,70,23,37,124,-135,49,23.75,88089
3,31,-261,-70,70,25,47,120,-203,51,23.71,88176
2,30,-263,-70,70,22,46,117,-201,48,23.85,88262
2,30,-263,-70,70,23,47,117,-203,51,23.71,88349
13,64,-266,-69,69,26,44,119,-204,46,23.71,88435
2,31,-263,-70,69,25,43,119,-201,49,23.79,88522
2,32,-263,-70,70,22,44,118,-201,47,23.85,88608
2,31,-263,-70,70,24,42,118,-205,47,23.71,88695
1,16,-260,-70,70,24,45,117,-191,48,23.71,88781
3,34,-266,-2,-258,-258,42,121,-193,49,23.71,88868
2,31,-264,-70,70,20,42,118,-201,47,23.71,88954
2,30,-263,-71,69,23,41,116,-201,49,23.79,89041
2,31,-262,-70,70,26,39,120,-200,47,23.87,89127
3,32,-262,-71,70,21,43,117,-202,49,23.75,89214
1,32,-264,-71,71,20,43,118,-200,48,23.81,89300
3,30,-262,-70,69,25,42,118,-200,47,23.75,89388
2,30,-262,-70,70,25,45,122,-205,51,23.75,89474
2,31,-263,-71,70,20,45,119,-202,47,23.75,89561
2,30,-262,-70,70,22,42,119,-200,47,23.71,89647
2,32,-262,-70,70,25,42,118,-203,51,23.75,89734
2,31,-262,-71,70,22,44,120,-203,48,23.85,89820
1,30,-263,-70,69,21,45,115,-204,46,23.93,89907
2,31,-263,-70,69,24,43,119,-204,48,23.91,89994
3,30,-262,-71,70,25,41,117,-207,48,23.75,90080
1,30,-261,-70,70,21,40,118,-201,47,23.75,90167
13,10,-259,-70,70,22,43,116,-203,50,23.87,90253
4,10,-251,-70,70,24,41,117,-203,48,23.75,90340
3,30,-263,-70,70,23,40,117,-205,48,23.79,90426
2,30,-261,-70,70,21,42,119,-208,46,23.85,90513
2,31,-264,-70,70,23,40,119,-205,48,24.09,90599
-13,68,-266,-70,69,24,45,116,-204,46,23.75,90686
3,30,-262,-70,70,22,40,117,-201,47,24.05,90772
2,30,-263,-70,70,23,42,115,-203,50,23.97,90859
2,30,-266,-70,69,25,44,118,-202,48,23.97,90945
-1,2,-260,-70,70,24,44,117,-206,48,23.79,91032
2,30,-263,-70,70,21,47,122,-202,50,23.91,91118
-4,31,-264,-70,69,23,47,120,-203,50,23.93,91205
1,30,-263,-70,70,24,48,118,-199,48,23.87,91291
3,30,-267,-71,70,23,51,119,-201,48,23.81,91378
2,30,-263,-71,69,21,50,116,-200,47,23.81,91464
1,31,-267,-70,69,24,44,118,-198,49,24.05,91551
2,31,-262,-70,70,25,44,120,-202,51,23.87,91637
2,32,-264,-70,70,21,43,121,-203,51,23.87,91724
2,29,-263,-71,70,22,43,118,-200,49,23.93,91810
2,30,-262,-70,70,25,45,117,-202,51,23.93,91897
2,32,-262,-70,70,23,43,119,-202,49,23.93,91983
1,31,-263,-71,70,22,44,119,-201,48,23.99,92070
2,32,-261,-70,70,24,42,117,-200,48,23.93,92156
2,30,-263,-70,70,25,47,117,-205,49,23.87,92243
2,30,-263,-70,70,22,45,119,-203,48,23.85,92329
2,32,-263,-70,70,23,46,114,-207,47,23.85,92417
1,21,-255,-71,69,23,49,119,-206,48,23.91,92503
-7,33,-253,-70,70,22,48,119,-205,48,23.91,92590
2,29,-263,-70,70,23,48,119,-199,49,23.93,92676
2,31,-264,-71,70,23,46,117,-199,47,23.91,92763
2,32,-262,-70,69,24,45,116,-200,49,23.93,92849
-15,16,-261,-70,70,22,46,118,-200,45,23.87,92936
12,26,-265,-70,70,22,45,119,-201,49,23.79,93022
1,32,-263,-70,70,24,48,121,-199,51,23.91,93109
4,30,-262,-70,70,24,46,120,-200,46,23.91,93195
-5,24,-259,-70,70,22,45,118,-199,48,23.93,93282
1,43,-260,-70,70,23,49,118,-197,50,23.97,93368
3,26,-261,-70,69,26,47,119,-200,50,23.97,93455
2,31,-262,-71,69,22,47,120,-200,47,23.85,93541
1,31,-262,-71,70,20,49,118,-200,49,23.93,93628
1,30,-264,-70,69,26,48,117,-203,47,23.97,93714
4,31,-262,-70,70,25,46,120,-203,49,24.09,93801
1,32,-263,-71,70,19,46,116,-202,45,23.97,93887
1,30,-263,-71,70,22,45,116,-203,48,23.97,93974
2,31,-264,-71,70,26,47,121,-201,45,23.99,94060
2,31,-263,-70,70,22,45,121,-202,49,24.03,94147
2,30,-264,-71,70,22,47,121,-202,49,23.97,94233
2,33,-261,-71,69,24,41,122,-203,48,24.03,94320
2,31,-263,-70,70,23,46,119,-201,47,24.05,94406
1,31,-264,-70,70,22,47,119,-199,46,23.93,94493
1,30,-262,-70,70,24,44,119,-201,48,23.85,94579
2,31,-265,-70,69,24,45,118,-198,48,23.85,94666
-8,53,-269,-70,70,21,53,122,-201,48,23.87,94752
-10,36,-258,-71,70,24,45,122,-200,46,24.03,94839
2,30,-264,-70,70,21,47,120,-197,48,23.93,94926
1,29,-266,-70,69,24,51,124,-195,49,23.99,95012
2,31,-262,-70,70,23,46,118,-201,48,23.99,95099
14,-7,-260,-70,70,22,47,119,-205,47,23.91,95185
9,68,-266,-70,70,25,45,121,-204,47,23.93,95272
3,31,-267,-69,70,24,46,120,-203,47,23.99,95358
2,30,-260,-70,70,22,47,120,-202,45,23.99,95446
1,31,-263,-70,70,22,43,118,-198,51,23.91,95532
5,46,-266,-71,70,25,39,108,-203,46,23.93,95619
3,34,-268,-71,70,24,47,122,-200,48,23.97,95705
-4,30,-268,-71,70,21,43,122,-203,48,23.99,95792
1,31,-264,-70,69,24,47,121,-203,47,24.05,95878
4,29,-264,-70,70,26,45,120,-200,46,23.91,95965
2,31,-264,-70,70,22,44,122,-196,50,23.87,96051
1,30,-263,-70,70,21,46,122,-200,47,23.91,96138
1,31,-262,-71,70,26,45,122,-199,49,23.91,96224
2,32,-262,-70,70,23,46,119,-202,47,23.99,96311
1,31,-262,-71,71,22,47,120,-198,49,23.93,96397
2,31,-264,-70,70,23,48,120,-198,51,23.79,96484
2,30,-264,-70,70,25,48,124,-201,49,23.91,96570
3,31,-263,-71,70,22,46,122,-201,48,23.93,96657
2,30,-263,-70,70,22,44,118,-202,46,23.97,96743
1,30,-260,-70,69,24,48,121,-201,47,23.93,96830
3,31,-262,-71,71,23,48,121,-196,48,23.93,96916
0,26,-258,-71,70,22,53,173,-201,47,24.05,97003
3,31,-260,-70,70,23,48,121,-201,44,23.87,97089
2,30,-262,-70,69,23,46,125,-199,50,24.03,97176
1,31,-265,-70,69,23,48,124,-199,48,24.03,97262
1,31,-264,-70,69,23,46,122,-201,47,24.03,97349
1,31,-264,-70,69,23,45,120,-196,52,24.05,97435
17,0,-260,-71,70,22,43,120,-199,46,23.99,97522
2,30,-264,-70,70,24,44,119,-202,46,23.97,97608
2,30,-264,-71,70,23,46,120,-203,48,23.97,97695
2,29,-263,-70,69,23,44,122,-200,47,23.93,97781
-4,0,-265,-70,69,24,45,121,-196,52,24.09,97868
3,31,-264,-70,70,23,47,119,-187,49,23.99,97954
2,18,-260,-70,69,24,46,117,-194,48,23.97,98041
2,32,-262,-70,70,24,45,123,-200,49,24.05,98127
1,30,-262,-70,70,20,46,122,-197,47,23.93,98214
3,29,-264,-70,70,23,45,120,-196,44,23.93,98300
2,31,-262,-70,69,26,47,120,-200,49,23.93,98387
2,31,-263,-71,70,22,45,122,-198,47,23.97,98473
1,30,-262,-70,70,21,45,122,-197,49,23.97,98561
1,30,-263,-70,70,25,48,120,-195,49,23.97,98647
2,31,-264,-70,69,24,46,123,-196,48,23.97,98734
1,32,-262,-70,70,21,46,124,-197,50,23.91,98820
2,31,-262,-70,70,22,46,120,-197,47,24.03,98907
2,31,-262,-70,70,25,48,125,-195,49,23.97,98993
4,29,-269,-70,69,23,50,119,-195,46,24.03,99080
2,29,-263,-70,70,22,50,119,-197,48,24.03,99166
-3,30,-256,-70,70,23,50,123,-191,48,23.85,99253
1,31,-264,-70,69,24,45,120,-198,46,23.97,99339
2,31,-265,-70,70,22,43,121,-201,48,24.03,99426
1,31,-261,-70,69,23,47,123,-200,49,23.87,99512
2,31,-263,-70,70,24,44,121,-199,48,23.93,99599
4,31,-258,-70,70,23,47,123,-198,45,23.97,99685
-15,24,-264,-70,69,23,48,121,-198,49,24.03,99772
2,31,-261,-72,69,24,47,122,-201,47,23.93,99858
2,30,-261,-71,69,22,47,121,-200,46,23.93,99945
2,31,-261,-71,69,22,45,121,-200,48,23.99,100031
7,54,-263,-70,70,23,48,121,-197,47,24.05,100118
1,13,-264,-71,70,24,48,122,-201,48,23.93,100205
4,30,-260,-71,70,23,50,121,-196,47,23.91,100291
0,28,-266,-70,69,23,49,124,-199,48,24.05,100378
1,34,-263,-70,69,21,44,123,-200,48,23.97,100464
1,31,-262,-70,69,25,50,120,-199,49,23.91,100551
3,30,-262,-70,69,24,46,123,-197,47,23.99,100637
1,30,-262,-71,70,20,50,124,-196,49,23.99,100724
1,30,-265,-70,70,23,50,122,-197,49,24.03,100810
2,31,-264,-70,69,26,48,123,-196,46,23.97,100897
2,30,-265,-70,70,23,50,121,-195,49,23.97,100984
1,30,-263,-70,70,21,46,121,-195,47,23.91,101070
1,31,-262,-70,70,24,47,123,-196,47,23.93,101157
3,30,-262,-70,70,25,49,124,-196,47,23.99,101243
2,31,-262,-70,70,21,47,121,-192,49,23.99,101330
1,31,-262,-70,70,22,49,122,-195,45,23.99,101416
0,26,-251,-70,70,25,35,189,-197,51,23.91,101504
1,32,-262,-71,70,23,47,124,-195,49,23.97,101590
2,30,-265,-71,70,21,49,121,-194,47,23.93,101677
1,32,-262,-70,69,24,49,119,-197,49,23.93,101764
2,30,-262,-69,69,25,48,120,-193,48,23.99,101850
3,30,-262,-70,70,21,46,123,-195,47,24.03,101937
14,-11,-260,-70,70,23,48,111,-193,47,24.05,102023
2,31,-263,-70,70,24,48,123,-196,49,23.91,102110
2,31,-263,-70,70,23,47,123,-193,46,23.91,102196
1,31,-263,-70,70,23,48,124,-191,50,23.97,102283
2,31,-262,-70,70,23,50,122,-194,49,23.93,102369
6,22,-267,-70,70,23,49,124,-195,50,23.97,102456
2,30,-263,-70,70,22,48,126,-194,48,24.09,102543
8,35,-270,-70,69,23,49,124,-192,49,23.97,102629
1,30,-264,-69,70,27,52,125,-193,48,24.11,102716
2,32,-263,-70,70,21,49,125,-194,45,23.97,102802
1,29,-263,-71,70,20,46,126,-193,47,23.99,102889
2,31,-263,-70,70,25,53,120,-194,47,23.99,102975
2,31,-262,-70,69,24,48,126,-193,47,23.93,103062
2,31,-263,-70,70,20,48,125,-189,49,24.03,103148
1,30,-264,-71,69,22,47,127,-195,51,23.99,103235
2,31,-261,-70,69,26,49,126,-192,45,24.05,103322
2,31,-264,-70,69,23,49,126,-194,47,23.93,103408
1,29,-263,-70,70,20,49,123,-194,46,24.03,103495
1,30,-262,-70,70,24,47,126,-196,46,23.93,103581
1,31,-263,-70,70,25,48,128,-142,48,23.93,103668
7,37,-275,-70,70,22,33,204,-196,46,23.93,103754
2,30,-264,-70,70,22,48,127,-194,44,23.99,103841
2,30,-262,-70,70,24,50,127,-196,47,23.99,103927
1,30,-263,-70,70,24,48,123,-195,47,23.97,104014
2,31,-263,-71,70,22,48,124,-193,47,23.97,104101
1,31,-264,-70,70,23,49,127,-194,47,24.17,104187
11,-17,-261,-70,69,24,47,122,-194,48,23.93,104274
3,31,-263,-71,70,22,47,125,-192,48,23.97,104360
2,31,-263,-71,69,22,47,124,-194,46,23.97,104448
1,31,-263,-70,69,24,47,123,-199,49,23.99,104534
2,32,-263,-71,70,24,47,124,-198,49,23.85,104621
4,60,-261,-70,70,21,46,123,-196,50,23.97,104707
7,37,-265,-71,69,23,48,126,-202,46,24.03,104794
4,28,-265,-70,69,25,51,128,-199,47,23.99,104881
3,28,-260,-68,70,24,48,123,-196,47,24.03,104967
1,32,-261,-70,70,18,46,122,-199,47,23.97,105054
1,31,-261,-71,69,25,49,122,-199,47,23.97,105140
2,32,-263,-70,70,27,50,125,-195,45,23.97,105227
3,30,-265,-70,70,20,48,125,-196,48,23.93,105313
1,30,-264,-68,72,20,49,125,-195,48,23.93,105400
1,31,-270,-70,70,26,49,125,-195,48,23.93,105486
2,32,-263,-69,69,24,49,127,-194,48,24.03,105573
1,31,-264,-71,69,20,47,126,-198,45,23.99,105659
1,30,-264,-70,70,23,49,127,-195,46,24.09,105746
2,31,-264,-70,70,26,45,124,-192,46,24.03,105833
2,30,-264,-71,70,22,48,126,-193,49,24.03,105919
18,12,-269,-71,70,20,48,123,-194,48,23.97,106006
1,30,-263,-70,70,25,46,127,-196,48,23.97,106092
1,30,-263,-70,70,24,46,122,-194,51,23.97,106179
2,30,-264,-70,70,21,52,124,-190,46,23.99,106265
1,30,-264,-70,70,23,47,125,-196,50,23.97,106352
1,32,-263,-69,69,25,46,124,-195,51,24.09,106438
8,68,-265,-70,70,23,47,122,-196,46,23.93,106525
-7,21,-262,-70,70,22,46,119,-194,48,24.03,106612
2,30,-263,-71,70,24,49,124,-196,47,24.03,106698
2,31,-262,-70,70,24,47,125,-194,47,23.99,106785
1,31,-262,-70,69,22,49,123,-191,49,23.91,106871
1,30,-263,-71,70,23,48,124,-191,46,23.99,106958
6,54,-261,-70,70,24,48,119,-192,49,23.99,107044
1,29,-261,-71,69,24,47,124,-192,48,23.99,107131
1,40,-259,-71,70,21,49,126,-192,47,23.97,107217
2,30,-263,-70,69,25,49,125,-192,51,24.03,107304
2,31,-265,-70,70,26,47,123,-193,50,23.93,107392
1,31,-263,-71,69,21,45,125,-194,46,23.93,107478
1,30,-264,-70,70,22,46,128,-194,49,23.91,107565
2,31,-262,-70,69,25,49,123,-192,48,24.03,107651
2,33,-264,-70,70,23,45,124,-194,48,23.99,107738
1,32,-262,-70,70,20,48,120,-194,46,23.91,107824
1,30,-263,-70,70,24,48,123,-195,47,24.03,107911
2,31,-262,-70,70,25,50,125,-196,48,23.99,107997
1,32,-263,-71,69,22,48,123,-193,45,23.93,108084
2,30,-264,-70,70,21,49,125,-197,49,23.99,108171
-1,28,-256,-70,70,24,46,124,-195,47,23.99,108257
2,32,-264,-70,70,24,47,121,-195,47,23.99,108344
1,29,-264,-70,70,22,47,125,-192,50,23.91,108430
1,31,-263,-71,69,23,49,122,-195,46,23.93,108517
2,30,-262,-70,70,25,47,129,-192,48,23.93,108603
1,31,-262,-70,70,22,45,124,-191,44,23.91,108690
-13,4,-262,-71,70,22,47,125,-193,48,24.05,108776
20,27,-263,-70,70,23,47,122,-193,47,23.99,108863
1,33,-260,-70,69,24,50,124,-194,49,23.99,108950
2,31,-263,-70,70,23,45,125,-195,49,23.93,109036
1,31,-263,-70,69,22,49,121,-195,47,24.05,109123
1,30,-264,-70,70,24,47,123,-194,46,23.99,109209
-5,16,-262,-70,70,24,46,124,-193,49,24.03,109296
1,31,-262,-71,70,22,47,126,-193,51,24.09,109382
3,37,-267,-71,70,22,60,123,-193,48,23.99,109469
3,33,-264,-70,69,27,46,121,-195,51,23.99,109555
2,31,-264,-71,70,21,46,120,-192,49,23.99,109642
0,31,-264,-70,70,19,48,123,-193,48,23.99,109729
1,30,-263,-70,69,27,47,124,-194,48,24.03,109815
3,31,-263,-70,70,25,48,126,-194,48,23.97,109902
1,32,-263,-70,70,19,47,121,-190,49,23.93,109988
1,30,-263,-70,70,23,47,124,-190,49,23.87,110075
2,30,-265,-70,70,26,47,126,-194,47,23.87,110161
2,31,-263,-71,70,22,46,126,-195,45,23.85,110248
1,31,-262,-71,70,20,49,124,-192,48,23.99,110334
-4,37,-264,-70,70,25,48,125,-195,49,23.85,110422
1,20,-256,-70,69,24,25,251,-192,50,23.85,110509
1,31,-262,-70,69,21,48,124,-193,49,23.97,110595
1,30,-263,-70,70,24,45,123,-192,48,23.85,110682
2,31,-263,-70,69,25,48,126,-194,48,24.03,110768
2,31,-265,-70,70,22,46,125,-192,49,23.97,110855
3,32,-264,-70,70,21,47,123,-191,47,23.99,110941
2,32,-262,-70,70,24,46,123,-194,48,23.91,111028
-8,-4,-262,-70,69,25,47,124,-193,46,23.93,111114
1,30,-263,-70,70,22,45,124,-192,49,23.93,111201
2,31,-261,-70,70,22,48,125,-194,49,23.93,111287
2,32,-262,-70,70,25,44,123,-195,47,23.97,111374
2,31,-263,-70,70,24,46,123,-192,48,23.91,111461
0,-6,-266,-71,69,23,45,120,-193,45,24.11,111547
0,28,-259,-70,70,22,46,123,-194,46,23.85,111634
2,31,-262,-70,69,26,47,123,-195,44,23.93,111720
-2,28,-260,-70,70,22,43,125,-190,45,23.93,111807
1,30,-262,-70,70,22,44,123,-193,49,23.93,111893
1,31,-264,-70,70,26,43,125,-195,46,23.93,111980
2,32,-262,-70,70,23,47,122,-192,50,23.93,112066
1,31,-263,-70,69,20,51,126,-194,48,23.91,112153
1,31,-263,-70,70,23,46,124,-194,46,23.93,112240
3,31,-263,-70,69,26,43,125,-194,48,23.97,112326
1,32,-263,-70,70,21,45,128,-193,43,24.05,112413
0,31,-262,-71,70,22,45,124,-194,50,24.03,112499
1,31,-262,-70,70,25,47,124,-193,49,23.91,112586
-2,39,-265,-70,69,24,30,205,-196,44,23.97,112672
-6,36,-261,-70,70,21,48,124,-193,49,23.97,112759
1,30,-263,-70,70,23,47,122,-193,47,23.93,112845
1,30,-263,-70,70,25,45,126,-193,53,23.91,112932
1,31,-263,-70,70,23,45,124,-191,49,23.97,113019
2,30,-262,-70,70,22,45,121,-193,51,23.93,113105
1,31,-262,-70,69,23,46,124,-192,49,23.85,113192
2,30,-263,-70,69,25,44,123,-194,48,23.85,113278
-18,46,-264,-70,69,23,44,123,-193,47,24.17,113366
1,31,-262,-70,70,22,45,126,-193,49,24.03,113452
1,31,-263,-70,69,23,44,124,-195,48,24.03,113539
2,32,-263,-70,70,23,44,123,-193,49,23.87,113626
1,31,-263,-70,70,23,46,126,-194,48,24.05,113712
1,31,-259,-70,70,22,44,124,-192,48,23.99,113799
2,11,-266,-70,69,24,50,124,-194,49,23.91,113885
2,31,-264,-70,70,24,44,125,-195,47,23.91,113972
-4,31,-262,-70,70,21,47,122,-187,48,23.87,114058
1,31,-262,-70,69,27,47,126,-195,46,24.03,114145
3,30,-260,-70,69,24,46,123,-192,49,24.03,114231
1,30,-263,-71,70,18,47,124,-196,49,24.03,114318
1,31,-262,-71,69,25,45,125,-190,50,23.91,114404
2,31,-261,-70,70,27,48,125,-193,46,23.91,114491
2,31,-268,-70,70,20,48,124,-192,47,23.91,114578
1,31,-264,-70,70,21,47,125,-194,49,23.87,114664
3,31,-266,-72,69,24,49,126,-193,50,23.99,114751
1,31,-259,-70,69,23,49,125,-195,50,23.93,114837
-2,24,-259,-70,70,22,56,125,-202,47,23.97,114924
3,30,-261,-70,70,24,46,124,-194,48,24.05,115010
2,32,-261,-70,69,23,50,124,-197,49,24.05,115097
1,31,-263,-70,70,23,46,123,-196,48,23.99,115183
1,30,-264,-70,70,23,46,126,-197,49,23.99,115270
1,30,-272,-71,71,24,45,126,-194,49,23.93,115357
0,31,-263,-70,70,22,47,123,-200,47,23.81,115443
1,30,-278,-70,69,23,45,126,-195,47,23.97,115530
-14,21,-262,-71,70,24,49,122,-200,51,23.97,115616
2,31,-261,-71,70,24,44,125,-200,49,24.05,115703
1,29,-261,-71,70,20,47,128,-197,51,24.05,115789
1,30,-263,-70,70,23,48,127,-194,48,24.15,115876
2,32,-263,-71,70,25,54,127,-197,49,23.97,115963
1,31,-262,-71,70,22,48,124,-196,48,24.03,116049
6,47,-268,-70,70,23,47,126,-198,46,23.99,116136
0,19,-266,-69,70,24,45,123,-195,49,23.97,116222
-3,29,-265,-71,70,25,48,122,-197,46,24.03,116310
5,31,-264,-71,70,22,46,127,-194,47,23.99,116396
5,30,-266,-73,70,21,46,127,-196,49,23.93,116483
2,30,-262,-70,70,24,47,126,-194,47,23.93,116569
2,31,-262,-70,70,26,46,127,-197,50,23.91,116656
2,30,-259,-71,69,21,45,123,-199,49,23.81,116742
2,31,-265,-71,70,22,50,123,-195,46,23.87,116829
1,31,-262,-70,70,25,46,127,-196,51,23.93,116916
1,32,-263,-71,70,23,50,124,-196,49,23.99,117002
2,30,-263,-71,70,21,47,127,-194,48,23.97,117089
20,15,-273,-70,69,24,48,126,-195,47,23.97,117175
2,30,-265,-70,70,24,50,125,-190,48,23.99,117262
1,32,-263,-70,70,22,49,123,-193,48,23.99,117348
1,31,-261,-69,70,22,49,127,-191,47,24.05,117435
2,29,-265,-69,69,25,47,125,-193,50,23.97,117522
3,32,-260,-69,71,24,47,127,-195,49,24.03,117608
2,30,-262,-71,69,20,47,127,-196,45,23.97,117695
1,31,-263,-71,70,22,47,125,-198,47,23.93,117781
-9,78,-263,-70,69,26,45,116,-198,44,24.03,117868
1,33,-262,-71,69,24,48,125,-195,43,23.91,117954
1,30,-262,-70,69,20,49,125,-199,48,23.97,118041
3,29,-268,-70,69,24,46,123,-199,49,23.97,118127
2,31,-261,-69,69,26,49,123,-193,47,23.87,118214
1,31,-267,-70,70,22,48,126,-191,47,23.97,118300
2,30,-261,-70,70,21,45,123,-194,49,24.03,118387
-1,22,-259,-71,70,24,46,128,-193,50,24.03,118474
2,31,-264,-70,69,25,47,124,-196,47,23.87,118560
-1,21,-259,-71,70,19,49,126,-197,50,23.99,118647
1,30,-263,-70,70,25,50,126,-195,49,23.99,118733
3,32,-262,-70,69,27,49,124,-198,46,23.99,118820
0,30,-259,-71,70,19,47,124,-195,46,23.97,118906
1,30,-264,-71,70,20,47,124,-195,52,23.97,118993
2,30,-264,-70,70,28,48,123,-197,48,23.91,119079
3,31,-264,-70,70,24,46,124,-195,47,23.79,119166
1,30,-263,-71,71,20,47,127,-195,47,23.97,119254
1,31,-264,-70,70,23,50,128,-197,46,23.97,119340
-3,34,-257,-69,69,27,59,129,-200,48,23.93,119427
1,31,-267,-69,70,22,49,126,-194,48,23.97,119513
1,31,-263,-71,69,21,47,124,-193,47,23.97,119600
1,31,-262,-70,70,25,50,127,-194,45,23.91,119686
2,31,-262,-70,70,24,50,128,-194,47,23.93,119773
1,30,-263,-71,70,21,49,126,-191,48,23.87,119859
1,29,-262,-70,70,23,46,128,-190,48,23.87,119946
2,31,-263,-70,69,25,50,128,-193,45,23.99,120033
19,0,-262,-70,70,23,48,124,-193,47,23.91,120119
1,30,-263,-70,70,21,47,126,-190,49,23.93,120206
2,32,-262,-70,69,24,49,128,-193,47,23.91,120292
3,27,-254,-69,70,27,49,128,-191,50,23.91,120379
3,28,-265,-70,70,21,49,127,-193,46,23.93,120465
1,30,-271,-70,70,20,47,127,-192,51,23.97,120552
1,30,-266,-70,70,26,47,125,-193,46,24.03,120638
-3,26,-258,-70,70,24,40,126,-196,46,24.03,120725
1,30,-264,-71,70,21,49,126,-195,49,23.99,120812
4,34,-263,-71,70,21,61,124,-196,48,23.85,120898
1,28,-263,-71,70,28,50,126,-193,49,23.99,120985
2,32,-265,-70,70,22,51,127,-195,48,23.93,121071
1,29,-263,-70,70,18,50,131,-193,47,23.93,121158
1,30,-262,-71,70,25,49,126,-197,48,23.85,121244
2,31,-262,-68,71,27,49,126,-193,49,23.87,121331
1,31,-264,-70,70,20,50,127,-193,47,23.93,121417
0,27,-273,-70,70,20,49,122,-191,48,23.79,121504
3,30,-268,-69,69,27,47,125,-195,50,23.91,121591
2,23,-257,-70,69,24,45,132,-193,49,23.91,121677
2,31,-263,-70,70,20,49,133,-193,46,23.87,121764
1,31,-263,-70,70,23,50,125,-193,47,23.87,121850
1,31,-263,-70,70,26,47,125,-195,48,24.05,121937
2,30,-264,-70,69,22,47,126,-195,49,23.91,122023
0,31,-262,-71,70,20,48,125,-196,46,23.97,122110
1,33,-238,-70,70,26,51,127,-195,49,23.85,122196
2,32,-260,-70,69,24,50,128,-193,48,23.87,122284
19,9,-258,-69,69,21,47,129,-194,49,23.91,122371
-7,38,-257,-71,69,22,45,126,-192,49,23.99,122457
2,32,-264,-70,70,24,49,128,-197,48,23.93,122544
2,31,-264,-70,70,23,47,127,-190,47,23.93,122630
1,31,-262,-71,70,21,47,127,-196,50,23.87,122717
0,31,-263,-71,69,22,49,129,-196,48,23.91,122803
1,31,-263,-70,69,25,50,127,-195,49,23.87,122890
-2,19,-259,-71,70,22,47,130,-193,49,23.85,122976
8,52,-261,-70,70,22,47,127,-191,48,23.91,123063
1,31,-263,-70,69,25,51,130,-194,47,24.03,123150
2,28,-260,-71,70,23,53,128,-194,50,23.97,123236
1,31,-263,-71,70,22,49,130,-191,49,23.91,123323
2,32,-262,-70,69,26,46,129,-193,49,23.91,123409
1,30,-264,-71,71,23,49,128,-194,47,23.81,123496
1,31,-264,-71,70,20,51,133,-196,47,24.03,123582
1,31,-264,-70,69,24,51,131,-191,46,23.93,123669
1,30,-254,-68,70,25,49,129,-194,47,23.81,123755
1,31,-263,-69,69,22,47,129,-193,51,23.81,123842
3,10,-252,-70,70,22,47,130,-189,48,23.71,123929
1,30,-262,-70,70,24,46,128,-192,49,23.97,124015
2,31,-264,-70,70,24,49,129,-188,46,23.99,124102
1,30,-262,-70,70,22,48,130,-190,49,23.99,124188
1,31,-262,-70,70,22,47,128,-187,46,23.93,124275
1,30,-263,-70,70,24,50,126,-191,46,23.85,124361
2,30,-263,-70,70,23,46,128,-190,53,23.93,124448
1,30,-262,-70,70,22,49,128,-190,48,23.91,124534
6,71,-264,-70,69,24,47,123,-190,46,23.91,124621
-20,29,-263,-70,70,24,49,127,-192,47,23.93,124708
2,29,-257,-69,69,24,50,129,-191,48,23.87,124794
1,30,-262,-70,70,22,49,130,-188,46,23.87,124881
2,30,-262,-69,70,24,49,127,-189,48,23.99,124967
1,31,-263,-70,70,24,47,128,-190,49,23.97,125054
2,31,-265,-70,69,22,47,127,-192,49,24.09,125140
2,30,-264,-70,70,23,46,121,-192,48,24.03,125228
1,18,-267,-70,70,23,49,128,-195,48,23.99,125315
2,31,-263,-70,70,24,49,129,-194,48,23.97,125401
7,38,-265,-70,70,21,57,133,-190,47,23.99,125488
-4,21,-260,-70,70,24,47,129,-192,45,23.91,125574
2,30,-261,-70,69,25,49,130,-191,47,23.91,125661
1,30,-263,-70,71,22,47,127,-193,49,23.79,125747
1,30,-263,-70,70,22,46,130,-191,45,23.87,125834
2,31,-264,-70,70,25,49,125,-192,48,23.69,125920
1,30,-263,-70,69,24,47,129,-193,51,23.81,126007
2,42,-263,-70,70,20,40,215,-196,47,23.85,126093
-10,34,-255,-70,70,23,42,140,-126,48,23.65,126180
2,31,-263,-70,69,26,44,130,-193,51,23.79,126267
1,31,-263,-70,70,23,45,128,-191,52,23.69,126353
1,31,-262,-70,69,20,48,129,-191,49,23.69,126440
1,32,-263,-70,69,24,47,129,-189,50,23.81,126526
2,31,-262,-70,69,25,48,127,-192,48,23.75,126613
1,31,-260,-70,70,21,42,127,-190,46,23.79,126699
1,31,-264,-71,70,22,46,128,-193,48,23.81,126786
1,31,-264,-70,70,25,48,129,-190,47,23.81,126873
-16,42,-262,-71,70,23,49,128,-192,48,23.87,126959
1,31,-263,-70,70,21,45,126,-188,47,23.79,127046
2,30,-263,-70,70,23,48,131,-192,50,23.79,127132
1,30,-264,-70,69,24,42,127,-194,51,23.81,127219
2,31,-262,-70,70,24,45,128,-192,45,23.85,127305
1,29,-261,-70,70,22,43,128,-197,47,23.87,127392
3,30,-282,-71,69,26,43,125,-197,53,23.79,127479
0,9,-272,-70,70,23,44,125,-196,46,23.87,127565
0,30,-262,-69,69,22,48,124,-196,44,23.93,127652
1,32,-267,-70,69,23,44,129,-194,46,23.91,127738
-2,33,-261,-70,70,25,47,128,-192,44,23.99,127825
2,31,-267,-70,69,21,44,128,-191,46,23.99,127911
1,30,-263,-70,70,24,46,128,-193,43,23.85,127998
1,30,-263,-70,70,24,44,126,-196,47,23.87,128084
2,31,-261,-71,70,22,47,127,-194,49,24.03,128172
3,29,-243,-70,70,22,47,126,-194,49,23.97,128258
-3,28,-250,-70,69,24,46,125,-198,45,23.99,128345
14,16,-266,-71,69,24,44,127,-194,46,23.97,128432
3,30,-264,-70,70,23,45,128,-189,51,23.99,128518
1,31,-265,-71,70,23,47,126,-193,49,23.87,128605
1,30,-261,-70,70,23,42,126,-192,47,23.87,128691
2,30,-264,-71,70,23,43,126,-194,50,23.85,128778
1,32,-262,-70,69,23,48,127,-192,47,23.97,128864
1,30,-263,-70,70,24,43,126,-195,48,23.93,128951
1,31,-261,-70,70,23,44,128,-193,48,23.91,129037
1,31,-263,-71,70,23,47,126,-196,50,23.79,129124
17,51,-263,-70,70,24,45,128,-197,47,23.97,129211
1,31,-260,-71,70,23,45,126,-192,45,23.97,129297
1,31,-262,-70,70,23,46,126,-195,46,23.97,129384
1,31,-262,-70,70,23,49,126,-196,47,23.93,129470
1,32,-262,-70,69,25,47,128,-195,51,23.85,129557
1,31,-263,-70,70,23,49,125,-193,49,24.03,129643
1,31,-261,-71,70,22,49,127,-195,48,23.91,129730
0,12,-262,-70,70,24,48,125,-190,50,23.91,129816
6,51,-262,-70,70,23,42,120,-194,50,23.99,129903
0,28,-277,-70,69,24,47,128,-195,48,24.03,129990
8,35,-267,-71,70,20,47,127,-186,47,24.05,130076
0,30,-263,-70,70,22,45,128,-192,48,24.05,130163
1,31,-263,-69,69,27,48,126,-193,49,23.97,130249
3,31,-264,-70,69,24,50,128,-192,48,24.03,130336
2,31,-268,-70,70,21,48,128,-189,47,23.91,130422
1,30,-263,-70,70,24,45,127,-194,47,23.99,130509
10,23,-266,-70,70,26,18,257,-193,48,24.05,130595
7,29,-263,-70,70,22,47,129,-191,48,24.03,130682
1,30,-262,-71,70,21,47,129,-195,48,23.99,130769
1,31,-263,-70,69,25,49,125,-195,49,23.97,130855
2,31,-263,-70,69,25,46,128,-191,45,23.97,130942
1,31,-263,-71,69,20,45,127,-191,48,24.03,131028
1,30,-261,-71,70,22,44,127,-192,47,24.09,131116
2,29,-273,-71,68,27,47,129,-189,46,24.05,131202
1,31,-264,-71,70,22,49,131,-187,48,24.09,131289
2,30,-259,-71,69,20,46,128,-188,47,23.93,131375
20,25,-262,-70,70,24,44,127,-192,46,24.03,131462
2,31,-263,-71,69,24,45,128,-193,50,24.03,131549
1,31,-262,-71,70,21,45,130,-192,53,23.99,131635
1,30,-264,-70,70,22,46,132,-194,57,23.99,131722
0,30,-262,-70,69,25,48,130,-194,53,24.03,131808
1,30,-263,-70,70,22,46,132,-191,54,23.93,131895
1,30,-263,-71,70,22,44,130,-191,53,24.05,131981
1,31,-264,-70,70,24,44,122,-193,52,23.99,132068
4,34,-269,-71,70,24,47,128,-197,53,23.93,132154
1,30,-262,-71,70,22,48,129,-191,52,24.11,132241
0,31,-263,-71,71,21,47,131,-189,52,23.93,132327
3,40,-257,-70,69,27,49,131,-174,49,23.93,132414
3,30,-262,-70,69,23,47,130,-191,55,23.87,132501
4,32,-251,-71,69,21,48,132,-190,53,23.97,132587
1,31,-261,-70,70,22,47,130,-191,58,23.97,132674
1,31,-262,-70,70,25,48,129,-191,68,23.99,132760
-7,39,-260,-70,70,23,48,131,-191,68,23.99,132847
5,30,-261,-70,70,21,15,202,-193,76,24.03,132933
1,30,-262,-71,69,23,46,130,-191,65,23.97,133020
2,30,-267,-70,70,25,45,130,-191,69,24.05,133106
1,32,-265,-70,70,23,46,128,-190,59,24.05,133193
1,32,-263,-70,70,22,49,128,-189,60,23.99,133280
2,31,-262,-70,70,24,47,130,-191,64,23.99,133366
1,31,-263,-70,70,24,49,128,-194,62,23.97,133453
2,30,-263,-70,70,22,47,131,-189,65,24.05,133539
1,30,-264,-70,70,22,48,128,-193,65,23.97,133626
8,68,-264,-70,69,24,44,130,-195,65,23.99,133712
1,30,-266,-70,70,22,46,129,-190,67,23.97,133799
1,31,-264,-70,70,22,46,128,-190,64,23.99,133885
1,31,-262,-70,70,24,43,132,-190,64,23.99,133972
2,29,-263,-70,70,23,47,127,-194,64,23.93,134059
1,32,-263,-70,70,24,46,128,-193,63,23.99,134146
2,32,-263,-70,70,23,46,129,-197,66,23.91,134233
1,30,-262,-2,-258,-258,48,133,-194,66,23.93,134319
-4,11,-257,-75,69,20,48,129,-196,63,24.05,134406
6,48,-267,-71,69,22,42,126,-204,66,23.93,134492
1,31,-261,-70,69,27,45,124,-206,64,24.09,134579
3,28,-269,-71,69,23,51,127,-199,64,23.99,134665
2,29,-264,-71,71,16,46,133,-198,65,23.99,134752
2,28,-267,-70,69,27,41,127,-210,66,23.97,134839
3,31,-263,-70,69,29,44,124,-211,66,23.91,134925
3,33,-250,-70,70,18,42,123,-217,65,23.87,135012
3,23,-259,-71,70,22,42,123,-224,64,23.99,135098
2,30,-264,-70,69,28,41,125,-218,64,23.97,135185
1,31,-264,-70,70,23,40,124,-221,66,24.11,135271
1,30,-262,-71,70,18,42,122,-216,64,23.91,135358
1,31,-262,-70,70,24,38,124,-217,63,23.91,135444
2,31,-263,-70,69,26,42,127,-219,63,23.85,135531
2,31,-264,-70,70,20,40,126,-217,64,23.91,135617
1,30,-265,-70,70,21,42,126,-215,65,23.93,135704
1,31,-263,-70,69,25,40,124,-216,65,23.97,135791
1,31,-263,-70,69,24,38,126,-216,64,23.97,135877
17,-7,-263,-70,70,21,40,116,-216,63,23.99,135964
5,32,-260,-70,69,24,39,125,-216,62,23.97,136050
1,30,-263,-70,69,25,42,125,-215,63,23.93,136137
1,32,-263,-70,69,23,40,123,-215,66,23.93,136223
0,30,-273,-70,70,22,40,126,-217,64,23.99,136310
1,32,-253,-70,70,23,40,127,-216,64,23.85,136396
2,30,-267,-69,70,25,39,125,-218,65,23.97,136483
2,30,-264,-71,70,22,40,123,-216,66,23.81,136570
1,31,-263,-70,70,22,43,125,-215,65,23.97,136656
-2,10,-260,-70,69,26,34,115,-217,67,23.87,136743
2,29,-264,-70,69,26,41,125,-218,66,23.79,136829
1,31,-264,-70,70,19,56,123,-217,64,23.79,136916
-1,34,-267,-70,69,23,49,124,-218,67,23.79,137003
3,31,-263,-70,70,28,39,124,-216,65,23.85,137090
2,32,-265,-70,70,22,41,124,-215,64,23.79,137176
1,31,-265,-71,70,20,41,128,-217,63,23.93,137263
1,20,-258,-70,69,26,14,223,-217,66,23.85,137350
1,32,-262,-70,69,25,41,124,-218,65,23.81,137436
1,31,-263,-71,70,21,39,125,-216,66,23.81,137523
1,29,-262,-70,70,21,41,126,-212,65,23.85,137609
1,30,-263,-70,69,25,41,122,-216,66,23.85,137696
2,32,-263,-70,70,23,39,125,-215,62,23.81,137782
2,30,-263,-70,69,21,42,126,-215,64,23.81,137869
1,31,-264,-70,69,24,42,127,-217,62,23.75,137955
0,31,-262,-70,69,25,41,127,-213,66,23.81,138042
1,31,-263,-70,70,22,39,126,-215,66,23.85,138129
-17,21,-264,-70,70,22,39,121,-217,63,23.79,138215
20,13,-262,-70,69,24,40,124,-219,65,23.79,138302
1,31,-263,-70,70,25,40,125,-216,64,23.81,138388
1,32,-263,-70,70,22,40,124,-214,64,23.81,138475
1,31,-263,-70,70,22,41,125,-218,66,23.75,138561
1,31,-264,-70,70,25,43,127,-215,65,23.85,138648
1,32,-262,-70,70,24,39,129,-219,65,23.91,138735
1,31,-261,-70,69,22,42,126,-216,66,23.91,138821
1,30,-261,-70,69,24,41,126,-217,67,23.79,138908
1,50,-260,-70,70,24,39,122,-218,65,23.97,138994
1,31,-264,-70,69,22,41,126,-216,68,23.81,139081
1,29,-262,-71,70,22,39,125,-215,65,23.81,139167
0,29,-259,-70,70,27,44,123,-215,63,23.81,139254
3,31,-264,-71,70,21,40,124,-213,65,23.81,139340
1,30,-262,-71,69,21,39,126,-218,68,23.85,139427
1,30,-263,-70,69,27,38,124,-215,64,23.75,139514
8,20,-261,-70,69,24,39,129,-191,66,23.81,139600
1,31,-263,-71,70,21,38,125,-216,65,23.71,139687
1,30,-263,-71,69,22,42,124,-217,64,23.85,139773
2,33,-270,-71,70,25,44,126,-218,63,23.93,139860
2,31,-265,-70,70,22,42,126,-216,66,23.93,139947
0,30,-276,-2,-258,-258,40,125,-217,63,23.81,140034
1,31,-263,-69,69,25,44,124,-215,65,23.93,140121
2,31,-263,-71,70,23,40,128,-218,63,23.65,140207
1,31,-265,-70,70,22,37,128,-215,67,23.75,140294
2,30,-262,-70,70,23,40,124,-219,63,23.93,140380
1,37,-263,-2,-258,-258,41,126,-215,64,23.87,140467
-9,1,-263,-70,70,24,44,127,-217,67,23.93,140553
1,31,-263,-71,69,23,41,125,-217,65,23.85,140640
1,30,-264,-70,70,24,43,127,-215,64,23.85,140726
1,31,-263,-70,69,24,43,126,-220,66,23.81,140813
1,31,-264,-70,69,22,39,125,-218,64,23.97,140900
1,31,-262,-71,70,23,39,123,-214,63,23.85,140986
1,31,-265,-70,69,24,39,126,-218,65,24.05,141073
1,31,-264,-70,69,23,41,127,-217,65,23.91,141159
-6,8,-259,-70,69,22,40,123,-219,67,23.99,141246
4,43,-264,-70,69,23,41,124,-215,62,23.79,141332
1,31,-263,-70,69,25,40,122,-215,65,23.93,141419
-5,24,-260,-70,69,22,42,123,-217,64,23.93,141505
-2,29,-265,-70,70,20,46,123,-216,64,23.91,141592
1,30,-262,-70,70,26,42,124,-216,64,23.79,141679
1,30,-263,-70,70,26,47,126,-220,63,23.93,141765
-1,40,-269,-70,70,20,37,127,-183,65,23.93,141852
0,30,-267,-70,70,22,40,124,-215,63,23.93,141938
2,31,-264,-70,70,26,41,123,-216,66,23.87,142025
2,32,-261,-69,69,23,41,123,-217,64,23.87,142111
1,30,-263,-69,69,21,40,125,-216,63,23.87,142198
1,29,-265,-70,70,25,41,123,-216,65,23.85,142284
1,31,-264,-70,69,24,42,125,-216,64,23.93,142371
1,30,-263,-70,69,21,40,127,-219,65,23.97,142458
0,31,-264,-70,70,22,41,124,-217,64,23.97,142544
2,31,-262,-70,69,25,41,129,-220,65,23.81,142631
1,31,-262,-71,70,23,37,124,-215,64,23.99,142717
2,71,-265,-70,70,21,42,120,-216,64,23.91,142804
1,31,-261,-71,70,24,40,126,-215,65,23.85,142891
1,31,-263,-70,69,23,40,125,-215,62,23.85,142978
2,31,-263,-70,69,21,40,125,-214,64,23.91,143064
0,32,-262,-70,70,23,42,126,-215,62,23.97,143151
1,32,-264,-70,69,24,40,124,-215,64,23.87,143238
1,32,-263,-71,70,22,42,123,-217,64,23.93,143324
0,30,-279,-71,69,22,44,126,-215,63,23.93,143411
1,32,-264,-73,68,25,43,127,-216,65,23.99,143497
-3,11,-261,-70,69,23,41,123,-215,65,24.03,143584
1,32,-264,-70,70,22,41,125,-216,64,23.99,143670
1,32,-262,-71,70,22,44,125,-214,64,23.99,143757
3,41,-268,-70,69,26,58,123,-217,66,23.97,143843
2,31,-262,-70,70,24,42,126,-217,65,23.91,143930
10,22,-267,-71,70,20,34,131,-172,64,24.05,144017
7,31,-274,-71,70,25,43,123,-224,66,23.99,144103
2,33,-263,-70,69,27,39,123,-218,65,24.03,144190
2,32,-264,-70,70,21,40,124,-217,63,23.97,144276
1,32,-262,-70,70,19,43,127,-217,66,23.93,144363
1,31,-263,-70,70,24,41,124,-217,65,23.87,144449
1,32,-263,-71,70,22,40,125,-215,62,23.87,144536
1,31,-262,-70,71,19,43,126,-215,63,23.81,144622
1,30,-261,-71,70,24,40,123,-216,65,23.85,144709
2,31,-263,-70,69,24,40,125,-215,69,23.93,144796
1,30,-264,-70,70,22,44,124,-215,71,23.91,144882
1,31,-266,-70,70,24,39,126,-216,68,23.91,144969
-19,28,-262,-72,70,24,40,122,-217,83,23.87,145055
4,30,-264,-68,71,24,42,123,-220,53,23.91,145142
1,30,-263,-70,69,24,39,126,-217,49,23.91,145228
0,32,-265,-70,69,25,40,125,-216,44,23.85,145315
1,31,-263,-70,69,24,42,123,-216,47,23.87,145402
1,30,-262,-70,70,23,37,125,-216,49,23.85,145488
0,31,-264,-70,69,23,41,125,-216,52,23.87,145575
2,29,-263,-70,69,24,39,124,-217,49,23.81,145661
1,31,-263,-70,70,22,41,124,-215,50,23.97,145748
-7,1,-266,-72,69,22,40,117,-214,48,23.87,145835
1,32,-265,-67,71,23,40,125,-216,47,23.91,145922
0,30,-263,-69,70,25,39,123,-215,47,23.91,146008
3,36,-263,-71,70,24,39,125,-217,49,23.85,146095
7,31,-266,-70,70,20,41,125,-209,48,23.97,146181
-2,39,-263,-71,70,23,40,126,-219,47,23.99,146268
-5,35,-260,-70,69,26,41,126,-215,47,23.85,146355
2,30,-264,-71,70,24,40,124,-218,47,23.91,146441
1,30,-262,-70,70,21,40,125,-213,47,23.87,146528
1,31,-260,-71,69,24,45,129,-217,51,23.85,146614
2,30,-269,-70,69,25,42,127,-215,50,23.99,146701
1,31,-263,-71,70,23,42,127,-214,51,23.99,146787
1,30,-262,-2,-258,-258,42,124,-216,49,23.97,146874
0,34,-262,-71,69,24,42,129,-215,49,23.91,146961
2,30,-261,-71,70,24,41,126,-214,49,24.03,147047
-1,29,-276,-71,69,21,38,124,-215,52,24.09,147134
2,30,-271,-71,69,25,39,126,-217,48,24.03,147220
-1,-10,-264,-70,70,24,41,120,-217,45,24.11,147307
2,30,-264,-70,69,23,43,126,-215,50,24.09,147393
1,31,-264,-70,70,24,39,126,-216,50,23.99,147480
1,32,-265,-71,70,23,42,124,-219,46,23.99,147566
1,31,-276,-70,69,25,41,124,-216,48,23.93,147653
1,32,-267,-70,70,22,37,124,-215,46,23.97,147740
1,31,-262,-70,70,23,42,125,-216,50,24.05,147826
1,30,-261,-70,69,24,41,128,-215,50,24.03,147913
1,31,-263,-70,70,23,40,125,-218,48,24.03,147999
1,31,-268,-70,70,23,39,126,-219,47,24.09,148086
-4,11,-266,-70,70,23,40,125,-216,47,24.03,148172
1,31,-265,-69,70,25,43,125,-213,48,24.03,148259
1,31,-263,-70,69,21,41,126,-217,49,24.03,148345
8,36,-269,-70,70,23,41,126,-205,48,23.99,148432
0,34,-267,-70,69,25,42,123,-219,46,24.03,148519
5,24,-266,-70,70,23,42,126,-214,50,23.97,148605
1,31,-262,-70,70,21,38,125,-217,47,23.91,148692
1,30,-263,-70,70,24,40,126,-217,46,23.99,148779
1,30,-264,-70,69,25,41,127,-214,51,23.93,148866
1,31,-262,-70,70,23,41,125,-218,49,23.87,148952
2,30,-262,-70,70,23,41,124,-215,50,23.87,149039
1,31,-264,-70,69,24,38,124,-216,51,23.97,149125
0,31,-263,-71,70,24,40,125,-217,53,23.91,149212
1,30,-262,-70,69,23,40,125,-216,47,24.05,149299
1,31,-264,-70,70,22,40,124,-219,47,23.99,149385
1,30,-262,-70,70,24,42,126,-215,50,23.85,149472
-20,55,-263,-70,70,24,41,126,-216,47,23.91,149558
0,32,-263,-70,70,22,40,126,-216,49,23.81,149645
0,31,-263,-70,69,23,40,127,-217,51,23.79,149731
1,32,-265,-70,69,25,42,126,-216,48,23.79,149818
1,31,-262,-70,70,24,43,124,-220,48,23.87,149904
1,31,-264,-70,70,22,39,126,-215,47,23.75,149991
1,31,-263,-70,70,23,39,128,-218,50,23.85,150078
1,30,-263,-70,69,24,40,128,-215,47,23.75,150164
1,31,-263,-70,69,23,39,128,-217,47,23.75,150251
1,31,-261,-71,70,22,40,124,-216,46,23.75,150337
3,33,-268,-71,70,24,38,127,-220,49,23.71,150424
1,30,-264,-71,70,24,38,125,-216,48,23.71,150510
0,31,-264,-70,70,22,38,125,-217,50,23.71,150597
0,35,-261,-71,69,26,37,125,-203,49,23.79,150683
11,22,-268,-70,69,23,41,124,-212,48,23.71,150770
1,31,-264,-70,70,18,41,126,-214,44,23.85,150857
1,32,-262,-70,70,25,43,124,-216,48,23.81,150943
1,30,-261,-70,70,27,41,124,-217,49,23.79,151030
2,32,-262,-71,70,21,42,128,-216,48,23.79,151116
1,30,-262,-70,70,21,42,124,-214,49,23.75,151203
1,31,-263,-70,69,25,39,123,-216,49,23.75,151289
1,32,-263,-71,69,25,39,125,-216,51,23.85,151376
2,30,-263,-70,70,21,39,126,-216,48,23.79,151463
1,31,-263,-71,70,23,41,126,-218,49,23.81,151549
1,30,-263,-71,70,26,41,127,-214,48,23.79,151636
1,31,-262,-70,70,23,38,126,-214,47,23.81,151723
-11,70,-264,-70,70,22,42,126,-215,47,23.81,151810
-5,29,-264,-70,70,23,38,124,-215,48,23.79,151896
1,32,-263,-70,70,25,39,125,-215,49,23.79,151983
1,32,-261,-70,69,23,39,128,-214,45,23.85,152069
1,31,-262,-70,70,22,40,125,-216,50,23.75,152156
0,29,-262,-70,70,25,44,126,-218,49,23.87,152243
2,31,-264,-71,69,24,39,125,-216,45,23.81,152329
1,30,-262,-71,69,22,42,128,-215,48,23.87,152416
0,30,-264,-71,70,22,42,125,-215,49,23.79,152502
1,30,-262,-70,70,25,39,127,-215,49,23.91,152589
-4,2,-263,-70,70,23,40,124,-211,47,23.93,152675
3,43,-263,-70,70,21,38,122,-213,46,23.93,152762
2,31,-262,-70,70,25,40,126,-217,47,23.91,152848
1,31,-263,-70,69,24,40,123,-218,49,23.85,152935
0,5,-259,-71,70,20,54,131,-161,47,23.81,153022
1,30,-264,-71,69,23,41,124,-215,48,23.79,153108
2,31,-262,-70,70,26,41,124,-218,49,23.91,153195
1,31,-263,-70,70,22,41,126,-216,45,23.79,153281
0,31,-263,-71,70,21,42,124,-216,47,23.75,153368
0,30,-260,-70,69,25,43,125,-215,50,23.81,153454
1,31,-263,-72,68,24,40,128,-215,49,23.81,153541
0,30,-263,-70,70,21,41,127,-217,48,23.65,153627
1,30,-261,-71,70,23,43,127,-215,51,23.79,153714
1,31,-262,-70,70,24,41,124,-217,48,23.75,153801
1,30,-264,-71,70,23,42,127,-216,47,23.85,153887
1,31,-264,-71,69,22,41,125,-215,48,24.03,153974
-21,37,-261,-69,70,25,41,123,-214,49,23.71,154060
13,-8,-264,-70,70,23,38,119,-218,48,23.81,154147
1,31,-263,-70,70,23,42,126,-215,45,23.81,154233
1,30,-262,-71,70,24,42,126,-218,47,23.69,154320
1,31,-263,-71,69,24,36,125,-216,48,23.79,154406
1,32,-265,-71,70,23,40,122,-214,48,23.79,154493
1,31,-264,-70,70,24,40,125,-214,48,23.65,154580
1,31,-262,-70,69,24,44,125,-219,47,23.81,154667
0,31,-263,-71,70,23,41,123,-215,51,23.81,154754
0,30,-261,-70,69,23,42,124,-215,50,23.81,154840
1,31,-263,-70,70,24,39,118,-214,50,23.69,154927
0,36,-258,-71,70,23,40,126,-217,48,23.69,155013
1,31,-263,-71,70,24,40,127,-218,49,23.71,155100
1,30,-265,-71,70,22,42,123,-214,47,23.87,155186
-16,27,-255,-70,70,25,42,124,-207,48,23.79,155273
5,36,-264,-67,70,26,43,125,-207,47,23.81,155360
1,30,-266,-71,70,19,42,125,-216,47,23.87,155446
0,30,-263,-70,69,22,44,125,-216,50,23.71,155533
1,30,-264,-70,70,28,39,126,-216,47,23.79,155619
2,29,-262,-70,70,22,44,129,-217,47,23.79,155706
0,30,-262,-70,70,20,43,124,-213,48,23.81,155792
1,31,-262,-70,70,26,41,127,-218,49,23.69,155879
1,31,-264,-70,69,26,42,128,-215,49,23.79,155966
1,30,-263,-70,69,21,42,126,-215,47,23.81,156052
0,30,-265,-70,69,22,43,126,-213,48,23.69,156139
1,30,-264,-70,69,26,44,126,-216,51,23.81,156225
2,28,-263,-70,70,23,39,120,-217,49,23.71,156312
-17,67,-265,-70,69,21,39,119,-214,47,23.81,156398
0,31,-262,-70,69,25,40,125,-217,45,23.81,156485
1,31,-263,-70,69,24,40,125,-216,51,23.69,156571
1,32,-263,-71,69,22,40,125,-212,46,23.85,156658
1,29,-261,-71,69,23,40,126,-217,48,23.81,156745
1,31,-263,-71,70,25,40,125,-214,47,23.75,156831
1,29,-263,-71,69,22,41,124,-215,47,23.53,156918
0,32,-263,-70,69,22,42,125,-214,47,23.69,157004
1,30,-262,-70,70,25,40,123,-215,50,23.85,157091
2,31,-262,-70,69,24,43,126,-215,50,23.85,157177
6,63,-260,-70,70,22,41,124,-214,51,23.81,157264
0,31,-262,-70,69,23,41,124,-218,48,23.65,157350
1,30,-263,-70,70,24,42,127,-211,47,23.79,157437
-3,41,-266,-70,69,25,47,127,-213,50,23.69,157524
2,20,-262,-70,70,22,56,122,-212,48,23.75,157611
2,31,-262,-70,70,22,42,125,-213,47,23.81,157698
1,31,-263,-71,69,25,41,126,-216,48,23.69,157784
1,30,-261,-70,70,24,43,124,-217,48,23.69,157871
1,30,-264,-71,70,22,43,127,-214,47,23.69,157957
1,30,-261,-70,70,22,43,123,-217,47,23.79,158044
1,30,-261,-70,70,25,42,125,-220,49,23.79,158131
1,31,-260,-70,70,23,41,128,-217,50,23.71,158217
1,30,-264,-71,69,21,39,125,-218,50,23.99,158304
1,31,-261,-70,69,23,39,125,-213,47,23.75,158390
1,30,-263,-70,69,25,40,125,-216,46,23.87,158477
1,30,-263,-70,70,23,40,125,-215,47,23.79,158563
-19,44,-263,-71,69,23,43,124,-216,50,23.79,158650
2,30,-262,-71,70,25,43,125,-218,49,23.75,158736
2,31,-264,-71,70,24,39,127,-215,50,23.69,158823
1,30,-261,-71,70,21,41,124,-215,48,23.85,158910
1,32,-263,-69,71,23,45,127,-214,50,23.69,158996
2,32,-261,-70,70,24,42,127,-217,50,23.69,159083
2,35,-259,-68,70,24,43,127,-215,49,23.71,159169
1,30,-263,-70,70,22,39,127,-215,49,23.79,159256
1,31,-263,-70,69,23,42,127,-215,48,23.75,159342
1,31,-261,-70,70,24,41,124,-216,50,23.75,159429
5,21,-270,-71,69,22,35,126,-216,49,23.87,159515
-1,24,-261,-71,69,23,41,129,-216,46,23.71,159602
1,30,-261,-70,70,26,42,124,-219,50,23.75,159689
5,28,-267,-71,69,22,35,208,-217,49,23.79,159775
0,32,-266,-71,69,21,42,123,-208,48,23.75,159862
3,30,-264,-70,69,27,40,124,-214,48,23.79,159948
2,30,-263,-71,69,22,41,125,-216,50,23.87,160035
1,29,-248,-72,70,19,40,126,-213,45,23.87,160121
1,30,-261,-70,70,26,41,127,-213,49,23.81,160208
0,31,-263,-70,69,26,41,126,-215,48,23.81,160294
2,31,-263,-71,69,21,42,124,-216,49,23.81,160381
0,30,-264,-70,70,21,43,124,-215,49,23.85,160468
2,31,-263,-70,69,26,41,127,-215,47,23.85,160555
1,32,-264,-70,69,24,43,124,-215,47,23.81,160642
1,31,-264,-70,70,20,41,126,-214,48,23.91,160728
0,30,-261,-70,69,24,38,122,-215,48,23.91,160815
-18,30,-261,-70,69,25,42,126,-216,52,23.91,160901
2,31,-260,-71,70,22,42,128,-215,48,23.81,160988
1,34,-261,-69,70,22,40,123,-215,48,23.85,161074
1,30,-262,-70,70,25,40,126,-217,48,23.85,161161
2,31,-264,-70,70,24,39,123,-213,50,23.85,161248
3,32,-261,-71,70,21,43,125,-214,48,23.85,161334
1,30,-265,-70,70,22,44,123,-214,50,23.91,161421
1,31,-262,-70,69,25,39,124,-216,49,23.91,161507
1,30,-262,-71,69,23,44,127,-215,48,23.81,161594
1,31,-262,-71,70,22,43,124,-215,50,23.81,161680
1,30,-262,-70,70,24,42,120,-214,49,23.81,161767
-1,6,-264,-70,69,24,39,123,-217,49,23.79,161853
-6,38,-266,-71,70,22,11,249,-221,47,23.65,161940
3,24,-264,-70,70,21,43,125,-216,49,23.81,162027
0,32,-263,-70,69,26,39,123,-217,47,23.87,162113
-1,20,-262,-70,70,25,53,125,-215,49,23.85,162200
1,32,-263,-71,70,20,39,122,-213,47,23.91,162286
0,31,-261,-70,70,23,43,126,-217,50,23.75,162373
2,30,-262,-70,70,26,40,126,-215,48,23.75,162459
1,31,-263,-70,70,23,41,127,-215,49,23.87,162546
0,32,-263,-71,70,21,40,126,-214,49,23.91,162632
0,31,-264,-70,69,25,42,128,-217,49,23.87,162719
2,31,-261,-70,69,25,39,125,-216,46,23.93,162806
1,31,-263,-70,69,22,39,124,-215,49,23.91,162892
0,30,-262,-71,69,22,43,125,-215,49,23.97,162979
2,31,-263,-70,70,26,40,126,-214,48,23.91,163065
-7,76,-264,-70,69,23,38,125,-218,51,23.91,163152
1,30,-262,-71,69,21,39,124,-217,46,23.93,163238
0,31,-264,-71,69,24,41,126,-215,50,23.91,163325
1,31,-262,-71,69,25,40,125,-218,49,23.85,163411
1,32,-261,-70,70,23,39,123,-218,46,23.91,163499
-1,31,-275,-71,69,22,40,126,-217,48,23.91,163586
1,31,-263,-70,69,25,39,123,-217,47,24.03,163672
2,32,-262,-70,69,24,42,121,-213,48,23.91,163759
0,31,-263,-70,70,21,43,125,-217,49,23.91,163845
0,31,-264,-70,70,23,41,123,-214,49,23.91,163932
1,31,-264,-69,70,25,39,124,-216,47,23.91,164018
9,51,-269,-70,70,23,42,123,-215,47,23.93,164105
0,24,-255,-70,70,22,24,187,-215,47,23.87,164191
-4,34,-255,-70,70,24,40,126,-215,51,23.97,164278
1,33,-262,-70,69,26,42,122,-219,49,23.91,164365
8,40,-267,-71,69,19,40,125,-212,48,23.85,164451
1,31,-263,-71,70,24,43,126,-214,47,23.99,164538
1,30,-261,-70,69,26,41,125,-217,46,23.93,164624
1,31,-262,-71,70,21,40,126,-217,47,23.93,164711
0,31,-264,-70,69,22,39,126,-213,48,23.91,164797
1,32,-261,-70,70,25,40,124,-214,47,23.93,164884
0,31,-261,-67,71,24,41,126,-217,50,23.97,164970
1,31,-265,-70,70,22,41,126,-218,46,23.97,165057
0,31,-262,-70,69,23,43,122,-214,49,23.97,165143
1,31,-263,-70,70,25,42,124,-216,48,23.93,165230
1,31,-261,-70,70,22,43,125,-217,47,23.99,165317
-17,23,-262,-70,70,22,40,125,-216,49,23.97,165403
-1,30,-262,-70,70,24,39,125,-217,47,23.97,165490
2,32,-263,-70,70,24,38,124,-215,47,23.99,165576
1,29,-264,-71,69,23,43,125,-216,48,23.97,165663
0,32,-262,-70,69,22,39,125,-214,46,23.93,165749
1,31,-263,-71,70,24,41,126,-217,48,23.99,165836
0,32,-273,-70,70,23,42,123,-213,48,23.99,165923
2,31,-264,-73,67,24,40,126,-213,49,23.97,166009
1,30,-266,-70,70,23,42,125,-216,47,24.05,166096
1,32,-263,-70,69,23,42,125,-214,49,24.05,166182
1,32,-263,-71,69,24,40,124,-215,49,23.91,166269
3,63,-261,-70,69,23,42,123,-217,49,23.97,166355
6,19,-271,-70,70,23,48,149,-219,46,23.91,166443
-5,36,-260,-70,69,24,38,128,-160,48,23.97,166529
2,31,-262,-71,70,21,42,126,-215,46,24.05,166616
1,30,-263,-70,69,22,40,126,-216,45,23.91,166702
-4,22,-263,-70,69,27,44,124,-215,52,23.97,166789
1,31,-263,-70,69,23,39,126,-217,48,23.97,166876
1,30,-262,-71,70,19,39,127,-216,51,23.97,166962
0,30,-262,-70,70,25,40,124,-216,49,23.93,167049
1,31,-264,-71,70,26,40,125,-219,45,24.03,167135
1,30,-256,-70,70,20,41,123,-217,49,23.99,167222
-1,33,-232,-70,70,22,41,126,-213,49,23.99,167308
1,31,-262,-69,70,25,41,124,-216,47,24.11,167395
1,31,-265,-70,70,23,42,125,-215,49,23.97,167481
1,30,-265,-70,69,22,41,124,-216,48,23.99,167568
1,-16,-263,-70,69,24,40,122,-216,47,23.93,167655
19,36,-264,-70,70,24,39,124,-218,49,23.93,167741
0,30,-261,-71,69,23,41,129,-215,46,24.05,167828
0,31,-263,-70,69,23,41,124,-214,48,23.97,167914
1,32,-261,-70,69,24,41,126,-215,49,23.93,168001
1,31,-263,-70,69,23,42,127,-214,45,23.99,168087
0,31,-263,-70,69,22,41,125,-216,46,24.09,168174
1,32,-264,-70,70,24,41,123,-215,52,24.11,168260
1,31,-263,-71,69,23,39,123,-214,49,23.97,168347
1,31,-262,-70,69,23,43,124,-216,46,23.91,168434
1,30,-262,-70,70,22,38,126,-219,49,23.91,168520
0,30,-265,-70,70,23,44,125,-213,48,24.05,168607
9,48,-263,-70,69,23,51,152,-219,51,23.93,168693
0,28,-264,-70,70,22,40,126,-218,48,24.05,168780
0,31,-263,-71,70,21,39,127,-217,46,24.03,168866
1,30,-262,-70,69,27,41,126,-215,47,24.05,168953
2,27,-264,-71,70,23,41,123,-211,49,23.93,169039
0,31,-263,-71,69,21,43,126,-215,49,24.03,169126
1,31,-262,-70,69,24,42,124,-213,48,23.93,169213
1,31,-263,-70,69,24,41,127,-215,49,23.93,169299
1,29,-263,-71,69,23,38,123,-216,45,24.03,169387
0,30,-263,-70,69,22,44,124,-215,48,24.05,169473
1,30,-263,-70,69,24,38,124,-213,48,24.03,169560
2,30,-263,-70,69,24,42,126,-213,48,24.09,169646
2,31,-264,-70,69,22,39,125,-214,50,24.15,169733
1,31,-262,-70,69,23,44,123,-214,49,23.99,169819
-3,71,-267,-70,69,24,41,118,-215,47,24.05,169906
-18,22,-264,-71,70,23,43,124,-213,50,24.05,169993
1,31,-263,-70,69,23,41,124,-215,48,23.97,170079
1,32,-263,-70,69,22,38,125,-213,50,23.97,170166
1,30,-262,-71,70,24,42,123,-212,50,23.85,170252
0,33,-263,-70,70,23,42,125,-219,49,23.97,170339
0,31,-262,-70,70,23,41,126,-213,48,24.09,170425
1,31,-263,-70,69,23,42,126,-216,47,23.99,170512
1,30,-262,-70,70,23,42,124,-213,48,24.05,170598
1,31,-262,-71,69,24,42,124,-215,52,23.99,170685
1,31,-261,-71,70,23,41,124,-217,51,23.99,170772
1,31,-264,-70,70,22,42,124,-214,50,24.05,170858
-5,34,-265,-70,70,24,45,122,-222,49,23.93,170945
2,38,-260,-70,69,24,43,126,-213,46,23.99,171031
1,30,-265,-70,69,23,43,126,-213,48,23.97,171118
1,31,-262,-70,70,25,42,126,-215,47,23.99,171204
1,30,-263,-70,70,20,42,123,-215,49,23.97,171291
-5,21,-260,-70,70,24,43,124,-211,52,23.93,171377
1,32,-262,-70,69,26,41,127,-217,48,23.99,171464
1,31,-262,-71,70,20,41,126,-212,49,23.99,171551
0,31,-264,-71,70,21,42,125,-214,46,24.05,171637
1,32,-263,-70,70,25,43,125,-217,48,23.99,171724
1,31,-261,-70,69,25,39,125,-214,46,24.15,171810
2,31,-262,-71,70,20,41,123,-213,45,24.05,171897
0,30,-262,-70,69,23,42,123,-216,52,23.97,171983
1,31,-263,-70,69,25,40,127,-215,45,23.97,172070
1,31,-263,-71,70,22,39,123,-217,49,24.05,172156
-19,27,-264,-70,70,21,41,125,-214,51,24.05,172243
0,31,-261,-70,69,25,40,127,-213,49,24.05,172331
0,31,-265,-70,70,23,37,123,-216,49,23.93,172417
1,32,-263,-70,70,21,39,125,-216,48,23.97,172504
1,31,-261,-70,70,24,39,126,-214,51,24.11,172590
1,30,-264,-71,70,24,37,125,-217,49,23.99,172677
1,31,-263,-70,69,22,39,125,-215,47,24.05,172763
0,30,-264,-70,69,22,41,126,-216,44,23.97,172850
1,32,-264,-70,70,24,39,123,-215,50,24.03,172936
1,32,-263,-70,70,24,44,122,-213,48,24.03,173023
1,31,-260,-71,69,22,39,127,-214,49,24.09,173109
2,27,-261,-71,69,23,43,124,-219,50,23.99,173196
-2,17,-261,-70,69,24,38,127,-213,47,24.09,173283
3,32,-251,-71,69,23,43,125,-214,49,24.11,173369
1,32,-264,-71,71,21,42,124,-217,46,24.03,173456
1,31,-270,-70,69,24,38,123,-213,49,24.05,173542
5,41,-267,-70,69,27,43,127,-215,47,24.05,173629
3,31,-265,-70,70,22,42,123,-216,47,23.97,173715
0,31,-265,-71,70,21,41,124,-215,47,23.97,173802
1,30,-263,-70,69,24,40,122,-212,48,23.97,173888
1,30,-263,-70,69,24,43,122,-213,47,23.97,173975
1,30,-262,-70,70,22,41,125,-216,51,23.97,174062
1,30,-263,-70,69,23,42,125,-215,50,24.05,174148
0,32,-261,-71,70,24,41,124,-217,48,24.09,174235
3,30,-255,-72,70,23,39,124,-216,46,24.05,174321
0,28,-254,-69,70,22,40,123,-215,47,23.91,174408
-7,73,-266,-70,70,24,40,123,-219,46,24.05,174494
1,32,-265,-70,70,25,40,125,-218,46,24.05,174581
1,30,-265,-71,69,22,40,124,-213,49,23.99,174667
0,30,-269,-70,70,22,40,127,-217,45,23.93,174754
0,29,-263,-71,69,26,40,126,-215,49,23.97,174841
2,31,-262,-71,69,22,40,125,-217,47,24.05,174927
0,30,-246,-70,70,21,43,127,-214,46,24.05,175014
-1,26,-287,-70,70,25,42,126,-215,46,24.03,175100
1,31,-265,-71,69,23,42,126,-214,48,24.15,175187
0,32,-249,-71,69,22,40,126,-216,51,23.99,175273
2,31,-262,-69,70,24,38,135,-153,49,23.99,175361
2,27,-261,-70,69,24,42,125,-220,47,24.03,175447
-4,5,-261,-69,70,24,41,123,-217,50,23.99,175534
1,30,-262,-70,70,22,38,127,-216,49,24.15,175620
0,29,-263,-70,70,22,42,127,-213,47,24.03,175707
1,31,-264,-70,69,28,42,127,-213,51,23.99,175794
5,33,-268,-71,70,20,41,123,-215,47,23.91,175880
-5,21,-258,-2,-258,-258,41,124,-215,47,23.99,175967
1,30,-264,-70,69,29,41,126,-217,48,24.05,176053
1,31,-258,-70,69,27,38,125,-215,49,24.05,176140
1,32,-263,-71,70,19,42,125,-219,48,24.09,176226
-5,28,-274,-71,70,22,39,126,-218,48,23.91,176313
1,30,-262,-70,69,25,41,125,-213,48,23.91,176400
1,31,-264,-70,69,24,43,123,-215,49,24.03,176486
0,31,-263,-70,70,21,41,126,-216,47,24.09,176573
1,30,-261,-70,69,24,41,128,-216,47,23.93,176659
14,-8,-265,-70,69,25,42,125,-216,48,23.99,176746
1,30,-262,-71,70,23,41,125,-215,44,23.99,176832
0,31,-262,-71,69,22,41,128,-215,46,24.03,176919
1,31,-262,-70,69,25,43,124,-215,49,23.99,177005
1,31,-262,-70,70,24,40,125,-215,49,23.93,177092
1,31,-262,-71,70,22,42,124,-216,47,24.05,177178
2,29,-264,-71,69,24,41,125,-214,49,24.03,177265
1,30,-263,-70,69,24,42,124,-215,47,23.97,177352
2,30,-261,-70,69,24,40,125,-215,50,24.03,177438
1,30,-262,-70,70,21,42,126,-216,49,23.97,177525
0,31,-261,-70,70,24,32,134,-157,49,23.97,177611
2,28,-260,-70,70,24,43,125,-217,50,23.97,177698
-5,4,-260,-71,70,23,39,124,-215,48,24.03,177784
1,41,-267,-70,70,23,41,126,-219,48,24.03,177871
0,30,-264,-70,69,25,40,129,-216,50,24.03,177957
1,31,-265,-70,70,23,40,124,-214,46,23.99,178044
0,32,-263,-70,69,20,68,119,-214,50,23.97,178130
-8,16,-264,-70,70,24,53,123,-213,49,24.11,178217
2,32,-271,-69,69,28,42,123,-213,48,24.03,178305
1,31,-265,-70,69,19,43,124,-214,48,24.03,178391
1,29,-262,-71,69,20,42,125,-218,45,23.99,178478
0,31,-262,-70,69,28,40,127,-212,47,23.99,178564
3,32,-262,-71,68,25,39,126,-216,51,23.93,178651
0,30,-263,-71,70,19,39,124,-217,47,24.03,178737
-1,33,-269,-71,69,24,40,125,-216,46,24.11,178824
1,31,-264,-70,69,27,40,125,-213,48,24.09,178911
-17,40,-263,-70,70,21,40,122,-217,49,24.11,178997
0,31,-263,-70,69,19,43,126,-214,49,23.93,179084
0,31,-263,-70,69,26,40,124,-217,48,23.93,179170
1,30,-263,-70,69,25,42,124,-215,46,24.03,179257
0,31,-264,-71,70,19,40,125,-217,49,23.99,179343
0,31,-263,-71,69,23,39,123,-215,46,24.03,179430
1,32,-261,-70,69,25,41,125,-215,50,23.97,179516
1,32,-265,-71,70,21,40,125,-215,50,24.05,179603
0,30,-262,-71,69,20,41,126,-215,50,24.11,179690
1,30,-262,-70,70,26,40,125,-212,49,24.03,179776
8,22,-264,-71,70,25,41,127,-215,48,24.03,179863
5,30,-269,-70,70,20,41,123,-213,46,24.03,179949
0,32,-262,-71,70,23,41,124,-214,47,23.99,180036
-3,9,-260,-69,69,25,43,126,-215,48,23.91,180122
1,30,-268,-72,69,20,44,126,-214,48,24.09,180209
1,31,-265,-70,69,22,43,126,-215,48,24.05,180295
1,31,-261,-69,69,28,41,126,-215,49,23.99,180382
3,29,-264,-70,70,23,46,122,-214,46,24.11,180468
3,31,-269,-72,70,18,44,125,-216,51,23.99,180555
-1,32,-257,-71,70,25,40,124,-213,47,23.99,180642
1,31,-262,-70,68,26,41,125,-215,48,24.05,180728
2,29,-259,-70,70,22,42,123,-213,50,23.99,180815
-1,33,-261,-70,70,21,41,126,-216,46,24.03,180901
1,32,-264,-70,69,26,40,124,-216,49,24.03,180988
1,30,-263,-70,70,24,41,125,-215,46,24.03,181074
1,31,-262,-70,69,21,40,124,-219,46,24.09,181161
12,56,-265,-70,70,24,40,123,-213,46,24.05,181249
-2,19,-265,-70,70,25,44,124,-216,50,24.05,181335
0,31,-263,-70,70,22,40,126,-214,48,24.05,181422
0,30,-262,-70,69,22,38,127,-212,44,23.93,181508
0,31,-264,-71,69,25,42,125,-213,44,23.97,181595
1,30,-262,-71,69,24,38,125,-216,48,24.03,181681
1,32,-263,-70,70,22,39,124,-212,48,23.97,181768
1,30,-263,-70,70,23,41,126,-213,46,23.99,181854
1,31,-262,-70,69,25,38,124,-212,48,23.93,181941
1,32,-263,-70,70,22,43,124,-216,48,24.03,182027
6,23,-263,-70,70,23,40,131,-135,50,24.11,182114
-1,25,-265,-71,70,24,44,125,-214,45,24.11,182201
0,30,-264,-71,69,23,42,126,-215,49,23.93,182287
-3,3,-267,-70,69,22,35,123,-215,49,23.91,182374
2,30,-264,-70,70,23,41,125,-215,50,23.99,182460
1,32,-266,-69,69,24,41,126,-216,48,23.97,182547
1,32,-263,-70,70,24,40,127,-217,50,24.09,182633
0,31,-263,-70,70,19,39,126,-210,50,23.99,182720
6,27,-266,-71,70,23,40,123,-214,49,23.99,182806
1,32,-259,-70,69,28,41,124,-215,48,24.09,182893
1,33,-264,-69,70,24,40,126,-216,47,24.09,182980
0,31,-259,-71,70,18,42,122,-216,49,23.97,183066
2,31,-262,-70,70,25,40,126,-215,51,23.93,183153
1,33,-263,-70,69,27,40,125,-215,48,23.99,183239
1,30,-273,-71,70,20,42,122,-213,49,24.09,183326
0,30,-262,-70,70,22,42,122,-216,48,24.05,183412
-14,3,-263,-70,69,26,41,125,-217,50,24.03,183499
13,59,-263,-71,69,23,41,126,-214,49,24.05,183585
1,30,-262,-71,70,22,40,125,-215,47,23.97,183672
0,31,-263,-70,69,24,42,125,-214,46,23.97,183759
1,30,-264,-70,70,24,42,127,-215,47,24.03,183845
1,30,-260,-71,70,21,41,126,-214,50,23.97,183932
1,30,-264,-70,70,23,42,126,-215,49,23.97,184018
0,34,-278,-71,69,26,39,124,-211,46,23.99,184105
1,31,-263,-70,69,22,41,123,-215,50,23.99,184192
0,34,-249,-70,70,24,42,125,-215,47,24.05,184279
-3,38,-261,-70,70,23,41,126,-217,44,23.99,184365
2,32,-262,-70,70,24,41,124,-213,50,23.99,184452
0,30,-262,-70,70,22,40,126,-215,48,24.03,184539
3,50,-267,-71,69,23,43,126,-210,48,24.09,184625
-3,15,-261,-70,69,23,36,118,-213,47,23.99,184712
1,30,-262,-70,70,24,41,122,-215,47,24.11,184798
1,31,-262,-70,69,21,43,125,-214,49,24.09,184885
0,30,-263,-71,70,22,42,126,-219,44,24.11,184971
-5,32,-266,-70,69,26,42,124,-218,49,24.03,185058
-1,29,-263,-71,70,22,40,126,-214,49,23.99,185144
0,31,-262,-71,70,21,43,122,-216,48,23.99,185231
1,30,-254,-70,69,26,42,123,-219,48,23.99,185318
0,31,-265,-68,70,23,42,126,-214,48,24.03,185404
0,29,-265,-70,69,21,42,126,-214,48,24.05,185491
1,30,-263,-70,69,24,42,127,-218,47,24.11,185577
1,30,-263,-70,70,25,43,125,-213,49,24.03,185664
0,30,-263,-70,70,22,38,124,-216,47,23.97,185750
16,42,-263,-71,70,22,40,124,-214,47,24.11,185837
1,31,-263,-70,70,25,40,125,-213,50,24.05,185924
1,30,-261,-70,69,24,41,125,-215,49,24.05,186010
0,32,-263,-70,70,23,40,127,-217,46,24.11,186097
-3,29,-276,-70,69,22,39,125,-215,48,24.11,186183
-4,28,-284,-70,70,25,37,127,-216,49,24.09,186270
1,31,-262,-71,70,22,41,124,-216,49,23.97,186356
0,31,-263,-71,69,22,39,125,-213,49,24.03,186443
1,29,-264,-70,70,25,40,124,-216,46,24.05,186529
3,22,-264,-71,70,22,17,210,-215,47,24.11,186616
0,30,-271,-71,70,24,40,124,-213,54,24.05,186703
0,28,-253,-70,69,21,40,124,-215,48,24.05,186789
0,32,-262,-70,69,25,38,121,-214,51,24.15,186876
5,31,-272,-70,69,21,39,124,-214,47,23.97,186962
1,31,-260,-72,68,25,43,126,-216,46,24.09,187049
0,32,-270,-71,68,21,42,123,-214,49,24.09,187136
1,30,-265,-71,68,29,42,126,-214,46,24.03,187223
7,32,-248,-70,68,20,48,122,-213,52,24.05,187309
-6,32,-260,-68,72,22,42,122,-215,50,23.99,187396
-3,29,-287,-70,69,24,41,126,-212,48,23.93,187483
2,33,-265,-71,68,30,41,126,-214,48,23.93,187569
3,32,-245,-71,69,17,40,128,-214,48,24.09,187656
-3,31,-282,-71,69,24,44,125,-215,46,23.97,187742
0,30,-248,-70,68,23,41,124,-214,49,24.09,187829
2,31,-248,-71,70,28,40,121,-211,49,24.15,187915
-2,29,-261,-71,70,16,41,122,-214,51,24.03,188002
11,56,-269,-70,70,27,38,125,-215,48,24.09,188088
2,31,-264,-71,69,26,42,125,-214,48,24.11,188175
1,31,-263,-70,70,19,42,124,-213,48,24.11,188262
-3,34,-269,-70,69,21,41,122,-215,48,24.05,188348
1,31,-264,-69,70,28,42,127,-212,46,24.09,188435
1,31,-263,-70,69,23,39,125,-212,45,24.11,188521
-1,30,-271,-71,69,22,40,124,-214,48,24.03,188608
-2,30,-271,-71,68,24,42,122,-214,51,23.99,188694
2,29,-264,-70,70,25,39,127,-215,44,24.09,188781
3,21,-263,-72,68,22,41,125,-200,52,24.09,188867
0,31,-263,-70,71,23,41,126,-212,49,23.97,188954
0,33,-253,-74,67,23,39,124,-214,50,23.97,189041
1,31,-262,-72,68,26,42,126,-215,46,23.85,189127
4,23,-264,-73,68,21,36,124,-214,49,24.09,189214
-1,34,-262,-73,68,24,42,125,-213,50,24.11,189300
1,30,-266,-72,68,24,39,125,-215,50,23.93,189387
1,31,-265,-71,70,26,44,127,-218,49,23.99,189473
0,31,-269,-72,70,17,43,124,-213,46,24.05,189560
-9,24,-262,-70,69,26,62,119,-214,48,24.05,189646
0,31,-263,-71,69,26,42,124,-214,45,23.91,189733
1,30,-263,-71,70,21,40,125,-213,52,23.91,189820
0,29,-262,-70,70,21,37,123,-218,46,24.09,189906
0,30,-266,-68,69,26,41,124,-215,52,24.05,189993
1,30,-268,-69,69,24,39,124,-218,45,24.09,190080
0,31,-263,-70,69,21,41,125,-213,49,24.05,190167
0,30,-263,-70,70,23,40,123,-215,49,24.05,190253
10,62,-265,-70,69,25,41,123,-216,48,23.93,190340
1,31,-263,-71,69,23,40,122,-214,47,24.05,190426
1,30,-260,-70,69,21,41,125,-214,47,24.05,190513
2,29,-263,-70,70,24,42,122,-215,46,24.05,190599
0,30,-264,-70,70,25,41,127,-216,49,23.93,190686
1,31,-261,-70,70,22,41,125,-213,49,23.93,190773
0,30,-265,-70,70,23,42,125,-216,49,24.03,190859
1,31,-262,-70,69,24,39,125,-212,49,24.05,190946
1,31,-264,-70,70,23,41,126,-213,50,23.93,191032
5,22,-263,-71,70,23,40,124,-213,50,23.97,191119
1,30,-264,-70,69,24,45,124,-215,49,24.11,191205
0,30,-264,-71,70,23,38,126,-213,48,24.03,191292
1,30,-263,-70,70,23,41,124,-216,48,24.03,191378
0,31,-263,-70,69,23,42,123,-216,48,24.03,191465
-4,9,-267,-71,69,24,34,121,-215,50,24.05,191552
1,30,-264,-70,69,25,41,126,-212,44,24.03,191638
0,31,-261,-70,70,21,41,125,-217,48,24.05,191725
1,31,-263,-70,69,23,40,123,-216,47,23.93,191811
-3,26,-260,-70,69,27,42,124,-215,48,24.03,191898
0,28,-263,-70,69,20,41,125,-212,48,23.91,191984
-1,30,-270,-69,70,21,43,125,-213,48,24.03,192071
1,30,-263,-70,69,29,43,125,-212,48,24.03,192157
2,32,-262,-71,69,24,42,125,-214,47,23.93,192244
0,31,-262,-71,70,20,41,126,-214,46,24.03,192331
1,31,-262,-71,70,24,42,125,-215,50,23.91,192417
1,32,-274,-70,69,25,40,129,-215,46,23.93,192504
-4,75,-266,-72,68,22,41,127,-218,50,23.99,192590
0,30,-263,-70,69,22,45,124,-214,48,23.87,192677
0,32,-261,-71,69,24,40,127,-213,49,23.93,192763
1,31,-263,-71,69,24,40,122,-209,51,23.93,192850
2,30,-260,-71,69,23,37,124,-215,51,24.09,192936
1,30,-263,-70,69,22,42,124,-213,49,23.99,193024
0,31,-270,-69,70,27,40,122,-216,47,23.93,193111
0,30,-264,-70,69,23,41,124,-213,48,23.93,193197
0,31,-261,-70,69,21,27,160,-220,47,23.91,193284
4,23,-262,-70,70,24,20,171,-213,49,23.97,193370
1,31,-264,-70,69,26,41,124,-215,50,23.91,193457
1,30,-264,-71,70,22,40,126,-215,46,23.93,193543
0,31,-262,-71,69,22,39,127,-211,48,23.93,193630
0,31,-261,-70,70,25,41,125,-212,49,23.97,193716
-4,24,-260,-71,69,24,40,124,-209,47,23.91,193803
1,32,-264,-71,70,21,41,126,-211,47,23.93,193889
1,31,-264,-70,70,21,41,124,-215,48,24.03,193976
1,30,-263,-70,69,27,41,126,-215,50,23.99,194063
1,31,-264,-71,69,22,41,124,-215,50,24.03,194149
5,24,-261,-71,69,19,41,125,-205,45,23.93,194236
-1,30,-263,-71,70,25,42,125,-216,48,23.87,194322
1,31,-263,-70,70,26,41,125,-214,51,23.87,194409
1,30,-263,-71,70,20,41,125,-217,49,23.87,194495
0,32,-263,-70,70,22,38,123,-213,49,23.91,194582
2,32,-262,-70,70,27,43,127,-215,46,23.87,194668
1,30,-263,-70,70,23,42,127,-216,49,23.97,194755
-10,75,-264,-71,69,21,39,119,-212,47,23.91,194842
0,31,-262,-70,70,23,39,123,-216,48,23.97,194928
1,31,-263,-70,69,26,41,123,-216,48,23.87,195015
1,31,-263,-71,69,22,40,125,-215,48,23.91,195101
1,30,-264,-71,70,22,45,124,-212,50,23.91,195188
1,30,-262,-71,69,24,44,125,-217,47,23.87,195274
1,30,-264,-71,70,24,38,126,-215,48,23.97,195361
0,31,-262,-71,70,23,41,126,-216,48,23.91,195448
3,22,-266,-70,69,22,37,131,-124,50,23.99,195534
4,23,-264,-70,69,25,28,195,-217,50,23.93,195621
0,30,-263,-70,70,23,42,124,-213,51,23.81,195707
1,31,-263,-70,69,22,40,128,-216,47,24.05,195794
0,30,-263,-70,69,23,43,124,-214,46,23.97,195880
1,31,-265,-71,69,24,40,128,-218,44,23.97,195968
0,48,-262,-70,70,23,43,124,-215,46,23.97,196054
-1,24,-265,-70,70,22,38,126,-217,50,23.97,196141
0,30,-262,-71,69,25,43,125,-213,49,23.97,196228
1,30,-264,-71,69,23,43,126,-213,50,24.03,196314
0,30,-259,-70,70,21,40,125,-211,51,23.93,196401
8,30,-266,-70,69,26,39,127,-214,46,23.99,196487
-1,34,-267,-71,70,23,43,125,-216,46,23.87,196574
1,30,-263,-71,70,19,38,124,-213,46,23.87,196660
0,31,-264,-70,69,25,38,125,-214,49,23.99,196747
0,31,-262,-70,69,26,41,125,-212,47,23.87,196833
1,30,-263,-70,70,20,42,126,-214,52,23.91,196920
0,31,-261,-70,70,21,39,126,-214,51,23.91,197007
4,-16,-265,-70,70,26,39,124,-215,48,24.03,197093
9,34,-265,-70,70,23,43,126,-216,49,23.97,197180
0,30,-262,-70,70,21,40,127,-214,49,24.09,197266
0,31,-262,-70,70,24,39,125,-215,46,23.91,197353
1,32,-262,-71,69,25,41,124,-214,49,23.91,197439
-2,34,-279,-70,69,22,42,124,-212,51,23.97,197526
0,30,-261,-70,70,22,42,123,-213,48,23.99,197612
0,30,-257,-69,69,25,42,127,-213,48,23.99,197699
-3,38,-264,-71,70,23,8,243,-213,52,23.97,197786
-5,37,-261,-71,69,21,43,125,-213,48,24.05,197872
0,31,-264,-70,70,24,41,124,-214,48,24.05,197959
1,31,-263,-70,69,25,44,123,-213,49,24.05,198045
1,31,-262,-71,69,24,42,121,-213,48,23.97,198132
1,31,-265,-71,70,23,42,125,-212,48,23.97,198218
0,30,-263,-71,70,24,40,124,-212,49,24.03,198305
0,46,-258,-70,69,24,41,125,-214,49,23.99,198391
0,31,-265,-70,69,22,39,126,-214,48,24.03,198478
2,31,-262,-71,69,20,41,126,-213,47,23.93,198565
1,30,-261,-70,70,26,41,125,-213,48,23.97,198651
2,31,-259,-70,70,25,40,123,-215,50,24.05,198738
1,44,-264,-71,70,18,42,126,-214,49,23.99,198824
-1,31,-261,-70,70,22,42,128,-214,46,24.05,198912
0,31,-263,-70,69,28,43,126,-213,48,24.05,198998
1,30,-263,-71,71,22,43,123,-215,47,23.99,199085
0,30,-264,-71,70,20,39,124,-213,47,24.09,199171
0,30,-262,-70,70,26,40,125,-216,48,23.97,199258
14,-13,-266,-71,69,24,38,125,-213,46,23.91,199345
2,70,-264,-70,69,21,37,125,-214,46,24.03,199431
1,28,-254,-70,69,23,43,123,-215,51,24.05,199518
-1,30,-263,-70,70,26,39,122,-214,47,24.03,199604
1,31,-263,-71,70,23,37,125,-215,48,23.97,199691
1,30,-265,-70,70,21,41,123,-216,47,23.97,199777
0,30,-262,-70,70,24,41,126,-215,48,24.05,199864
1,32,-264,-70,70,25,42,126,-215,48,23.99,199950
-3,34,-259,-70,70,22,46,125,-220,52,23.97,200037
1,32,-266,-71,69,21,40,125,-213,47,23.99,200124
0,30,-264,-70,70,25,42,128,-215,49,24.21,200210
0,30,-264,-71,70,24,40,125,-218,48,24.03,200297
1,31,-263,-71,70,21,39,124,-212,48,23.97,200383
0,32,-262,-70,70,22,39,126,-216,48,24.05,200470
0,31,-262,-71,69,25,42,125,-212,51,24.05,200556
-2,7,-267,-71,70,23,43,125,-215,50,24.09,200643
-1,31,-264,-71,69,20,41,127,-214,49,24.09,200729
1,31,-263,-71,69,26,42,128,-214,47,24.15,200816
1,31,-261,-70,69,26,41,124,-216,48,24.11,200903
0,31,-263,-70,70,19,39,127,-215,47,24.03,200989
2,38,-259,-70,69,23,39,127,-215,51,24.21,201076
-5,19,-266,-70,69,27,41,125,-214,51,24.05,201162
0,31,-262,-71,70,21,44,124,-214,50,23.99,201249
2,29,-263,-71,70,21,40,124,-212,45,23.99,201335
1,31,-263,-70,70,26,38,126,-215,50,23.93,201422
0,33,-262,-70,70,24,42,123,-213,48,24.03,201508
0,37,-263,-70,70,20,44,124,-214,47,24.09,201595
-18,27,-263,-70,70,24,38,123,-215,50,24.05,201682
0,31,-264,-70,70,26,40,126,-215,47,23.93,201768
1,31,-263,-70,69,22,42,123,-215,47,24.05,201856
0,31,-263,-70,70,21,41,125,-214,49,23.97,201942
0,31,-262,-70,69,25,40,124,-215,53,23.97,202029
0,30,-263,-70,69,25,41,124,-213,50,24.09,202115
1,31,-264,-71,69,21,39,124,-213,50,24.15,202202
-5,38,-261,-71,70,22,21,177,-214,50,24.09,202288
0,30,-262,-71,69,25,38,125,-216,48,23.93,202375
2,30,-267,-68,70,22,40,126,-217,47,23.99,202462
0,30,-263,-70,70,22,44,126,-212,45,24.21,202548
-1,31,-261,-70,69,25,41,124,-215,48,24.11,202635
1,31,-264,-70,69,24,39,123,-214,47,24.09,202721
2,31,-264,-70,70,22,44,127,-215,49,24.09,202808
4,47,-263,-71,70,22,43,128,-211,49,24.15,202894
-1,19,-262,-71,69,24,42,126,-212,52,24.05,202981
1,32,-264,-70,69,25,43,125,-216,48,24.03,203067
1,31,-265,-70,70,21,42,126,-214,49,23.97,203154
0,30,-264,-70,69,22,42,125,-211,52,23.91,203241
0,32,-264,-70,69,28,41,123,-214,47,23.99,203327
0,36,-262,-70,70,23,41,127,-212,46,24.03,203414
1,30,-263,-2,-258,-258,43,123,-213,49,24.03,203500
0,30,-263,-70,69,25,41,124,-215,49,24.03,203587
1,30,-263,-71,70,27,40,124,-217,51,24.03,203673
0,31,-261,-70,70,21,41,125,-217,49,24.05,203760
0,30,-264,-70,69,21,39,127,-216,52,23.93,203846
8,57,-265,-70,69,26,41,127,-214,50,24.05,203933
1,32,-264,-70,70,24,40,122,-214,47,24.03,204020
0,30,-262,-70,70,19,41,124,-212,52,23.99,204106
-1,31,-261,-71,69,23,42,127,-214,49,24.09,204193
1,31,-263,-70,70,27,43,125,-216,48,24.11,204279
1,32,-260,-71,70,22,44,123,-214,44,24.11,204366
0,31,-263,-70,70,20,43,189,-218,51,23.97,204452
3,25,-265,-69,70,25,39,131,-147,49,24.11,204539
0,30,-263,-70,70,26,42,127,-213,49,23.99,204625
0,30,-264,-71,70,21,45,126,-215,49,24.05,204712
0,31,-262,-70,70,21,42,125,-215,51,24.17,204800
1,31,-262,-70,69,26,44,125,-214,48,24.05,204886
0,30,-264,-71,70,23,43,126,-215,51,24.11,204973
0,30,-262,-71,70,21,43,125,-212,52,24.11,205059
1,30,-263,-71,69,23,42,126,-215,49,24.11,205146
-2,38,-254,-70,69,25,41,125,-217,49,23.97,205232
0,31,-265,-71,70,22,39,126,-218,49,24.05,205319
1,32,-269,-70,70,20,39,125,-217,48,24.11,205405
1,32,-263,-69,69,26,43,126,-215,48,24.11,205492
1,31,-276,-71,69,25,38,125,-216,46,24.15,205579
-2,21,-262,-70,70,20,44,130,-216,46,24.15,205665
4,40,-264,-70,70,23,41,124,-214,49,24.05,205752
0,30,-262,-70,70,24,42,125,-215,49,23.97,205838
1,31,-263,-70,69,23,42,126,-215,52,23.97,205925
-1,30,-264,-70,70,23,42,126,-214,50,24.09,206011
0,30,-262,-70,69,23,43,128,-216,50,24.15,206098
2,70,-261,-70,70,23,43,127,-214,48,24.03,206184
1,30,-263,-70,70,24,42,127,-215,47,23.99,206271
0,30,-262,-70,70,23,43,125,-213,49,24.15,206358
0,31,-264,-70,69,23,43,127,-214,48,24.05,206444
1,32,-263,-70,70,24,44,126,-214,48,23.99,206531
1,30,-263,-71,70,23,42,125,-215,48,24.05,206617
0,31,-262,-70,69,23,42,127,-211,48,24.05,206704
-2,29,-256,-70,69,24,12,247,-215,48,23.99,206790
1,31,-261,-70,70,23,43,127,-211,46,24.03,206877
0,31,-262,-71,69,23,41,123,-215,51,24.03,206963
1,30,-264,-70,70,23,41,125,-214,49,24.05,207050
0,31,-262,-70,69,24,44,125,-210,48,24.15,207137
1,31,-263,-70,70,22,42,125,-215,52,24.11,207223
0,31,-261,-71,70,23,40,123,-215,47,24.11,207310
0,33,-262,-70,69,24,42,125,-214,49,24.11,207396
-3,8,-267,-70,69,23,40,128,-214,47,24.09,207483
2,30,-263,-70,69,22,40,124,-216,48,24.11,207569
0,30,-263,-70,70,25,40,126,-215,48,24.23,207656
2,31,-260,-70,69,26,39,125,-216,51,24.03,207742
1,31,-263,-70,70,18,43,127,-215,48,24.09,207830
-1,30,-265,-70,70,22,41,128,-215,48,24.09,207917
1,45,-257,-71,70,29,44,128,-212,51,24.17,208003
2,32,-260,-70,69,23,40,126,-213,48,24.03,208090
0,31,-264,-71,70,19,40,124,-215,46,24.03,208176
0,30,-263,-70,69,25,44,126,-214,49,24.17,208263
1,31,-264,-70,69,26,42,124,-214,52,23.97,208349
15,47,-263,-70,70,21,44,126,-214,50,24.11,208436
0,30,-262,-70,69,21,43,126,-212,51,24.11,208522
0,32,-263,-70,69,25,42,126,-214,49,24.15,208609
1,31,-254,-71,68,25,42,127,-216,51,24.03,208696
0,31,-262,-70,70,20,42,128,-212,45,24.09,208782
-1,33,-273,-71,69,24,40,124,-213,51,24.03,208869
1,30,-263,-70,69,24,43,123,-213,47,24.03,208955
0,30,-267,-71,69,23,42,128,-211,51,23.99,209042
0,31,-264,-70,69,23,41,126,-214,48,24.05,209128
1,32,-264,-71,70,23,40,126,-214,49,24.09,209215
1,31,-263,-72,70,23,43,125,-216,49,24.11,209301
0,31,-264,-70,70,23,42,127,-215,50,24.09,209388
0,26,-259,-72,69,24,40,124,-216,52,24.05,209475
2,30,-270,-71,69,23,40,124,-215,46,24.05,209561
0,31,-267,-70,70,25,42,125,-214,50,23.91,209648
0,31,-261,-70,69,23,41,126,-216,46,23.91,209734
-1,15,-266,-70,69,23,39,124,-218,50,23.99,209821
1,31,-262,-70,70,25,38,126,-212,48,24.09,209907
0,31,-264,-71,70,22,42,127,-216,49,23.91,209994
0,30,-263,-70,70,23,42,126,-215,49,24.03,210080
1,30,-264,-70,69,26,41,125,-215,47,24.11,210167
1,41,-260,-69,70,22,46,127,-215,49,24.03,210254
-3,33,-263,-71,70,22,41,123,-216,48,23.99,210340
1,29,-263,-70,71,21,40,125,-212,49,24.03,210427
-1,30,-263,-70,68,25,41,124,-215,48,24.03,210513
1,30,-264,-71,69,26,41,126,-212,48,24.17,210600
7,64,-265,-70,70,20,40,124,-213,50,24.05,210686
1,31,-263,-70,70,22,39,120,-214,47,23.97,210774
-3,33,-270,-71,69,26,43,124,-212,47,24.03,210860
1,31,-262,-70,69,24,42,122,-212,48,24.23,210947
1,30,-258,-70,70,20,40,125,-214,49,24.05,211034
0,30,-264,-70,69,24,44,128,-214,51,23.99,211120
1,32,-262,-70,69,26,29,232,-214,49,24.11,211207
0,33,-266,-70,69,21,37,134,-148,50,24.11,211293
0,30,-262,-71,70,22,41,126,-214,49,24.05,211380
0,32,-263,-70,69,26,41,129,-215,47,24.09,211466
1,33,-263,-70,69,24,39,126,-216,48,24.09,211553
1,29,-254,-70,69,22,39,128,-215,48,24.05,211639
0,31,-260,-70,69,22,42,125,-218,51,23.99,211726
1,31,-264,-70,69,27,43,127,-215,47,24.05,211812
1,31,-262,-71,70,24,42,128,-212,49,24.17,211899
0,31,-263,-71,70,21,44,126,-211,49,24.17,211986
-4,34,-259,-70,69,24,44,126,-213,47,24.03,212072
0,31,-263,-70,69,25,38,128,-213,46,24.05,212159
1,30,-262,-70,70,21,41,125,-214,48,24.09,212245
-1,30,-265,-70,70,24,38,127,-215,47,24.05,212332
1,30,-263,-71,69,24,42,126,-212,48,24.05,212418
0,31,-262,-71,70,20,42,126,-213,48,24.09,212505
4,39,-269,-70,69,24,40,124,-213,50,24.05,212591
1,30,-263,-71,69,26,41,125,-214,47,23.87,212678
1,31,-262,-70,70,22,40,125,-216,49,23.87,212765
-3,28,-277,-69,70,22,43,123,-213,52,24.05,212851
5,66,-269,-70,69,24,40,123,-216,48,24.09,212938
-21,36,-262,-70,69,23,44,129,-215,47,24.05,213024
0,30,-262,-70,70,23,42,126,-216,49,23.85,213111
0,31,-262,-71,70,23,42,124,-212,49,23.99,213197
1,30,-263,-70,70,24,38,126,-216,48,23.99,213284
0,31,-272,-70,69,24,43,124,-215,50,23.99,213370
-5,38,-265,-73,68,21,19,219,-212,49,24.09,213457
-5,33,-261,-70,69,23,42,125,-213,51,24.09,213544
1,31,-263,-70,70,25,41,127,-213,49,23.97,213630
